aX,aY,aZ,gX,gY,gZ
-0.036,0.088,0.994,5.554,-3.723,6.958
-0.038,0.091,1.007,8.118,-5.920,5.859
-0.033,0.084,1.039,8.606,-7.935,5.188
-0.028,0.069,1.061,7.385,-16.663,4.150
-0.002,0.030,1.140,6.470,-23.315,4.089
0.013,0.013,1.193,4.578,-36.499,6.897
0.023,-0.021,1.276,2.991,-41.321,9.827
0.001,-0.068,1.320,-0.549,-46.082,17.883
-0.019,-0.096,1.326,-2.014,-46.143,22.400
-0.070,-0.126,1.313,-6.042,-44.861,29.541
-0.097,-0.131,1.287,-13.916,-42.847,30.884
-0.146,-0.142,1.169,-20.752,-41.626,29.114
-0.169,-0.152,1.076,-43.640,-43.030,19.104
-0.185,-0.214,0.825,-59.448,-46.326,9.827
-0.134,-0.388,0.485,-93.933,-48.340,-10.803
-0.074,-0.448,0.231,-111.328,-10.681,-13.000
-0.013,-0.301,-0.662,-108.337,32.227,-5.554
-0.005,-0.070,-1.332,-99.060,104.797,0.244
0.156,0.431,-2.765,-90.637,107.971,-7.263
0.274,0.468,-3.219,1.282,72.754,-17.883
0.147,0.634,-3.089,107.178,72.510,-6.836
-0.744,1.386,-2.516,331.177,167.358,-0.549
-1.216,1.467,-2.418,336.182,223.816,-110.413
-1.474,0.292,-1.861,230.469,155.151,-175.903
-1.478,-0.456,-1.078,-80.139,-94.177,-167.725
-1.353,-2.078,1.083,-218.384,-172.546,-109.375
-0.750,-2.664,2.749,-192.078,-53.955,-5.676
1.480,-2.274,4.000,-9.949,94.604,-49.988
2.394,-2.284,4.000,69.397,-32.532,-51.086
1.815,-1.002,3.951,-2.991,-220.276,105.225
-0.076,0.147,0.994,11.597,-2.502,-3.235
-0.082,0.136,0.991,12.085,-1.282,-2.747
-0.083,0.134,0.984,14.587,-0.732,-2.502
-0.077,0.133,0.991,16.235,-1.282,-2.563
-0.074,0.133,1.007,16.785,-1.160,-1.221
-0.072,0.134,1.034,14.771,0.061,0.183
-0.077,0.136,1.026,9.277,3.418,1.831
-0.083,0.138,0.997,7.568,3.479,1.343
-0.083,0.139,0.994,6.836,0.122,-1.099
-0.076,0.140,1.010,7.019,-1.160,-2.197
-0.076,0.135,1.010,6.714,-0.916,-2.869
-0.074,0.131,1.005,5.127,-0.977,-1.831
-0.070,0.128,1.007,4.456,-1.160,-0.793
-0.070,0.128,1.003,5.615,-0.488,0.000
-0.073,0.128,0.991,7.324,-1.038,-0.061
-0.072,0.125,0.998,11.047,-5.920,-0.977
-0.054,0.117,1.056,10.925,-8.911,-1.038
-0.055,0.115,1.077,5.249,-11.108,0.244
-0.063,0.112,1.060,0.366,-13.062,0.793
-0.080,0.103,1.043,0.183,-17.639,0.610
-0.080,0.099,1.064,4.089,-30.090,0.549
-0.083,0.073,1.120,6.775,-33.691,1.526
-0.091,0.056,1.133,12.573,-31.372,6.165
-0.130,0.030,1.097,15.686,-27.893,7.874
-0.148,0.014,1.052,18.250,-27.100,3.418
-0.150,-0.046,0.938,16.235,-33.691,-3.418
-0.131,-0.095,0.886,4.395,-62.805,-23.682
-0.032,-0.242,0.810,-1.648,-79.468,-32.654
0.054,-0.329,0.768,-6.653,-84.229,-26.917
0.272,-0.408,0.526,-6.348,-59.387,-8.057
-0.018,0.071,1.005,3.845,-2.991,0.183
-0.021,0.067,1.016,3.357,-2.502,0.732
-0.024,0.067,1.018,1.648,-1.160,1.648
-0.027,0.067,1.011,0.610,-0.610,1.831
-0.028,0.068,1.005,-1.038,-0.610,2.197
-0.030,0.069,0.998,-1.282,-0.671,2.197
-0.032,0.068,0.995,-0.061,-0.671,1.892
-0.037,0.066,0.994,1.404,-0.977,1.526
-0.039,0.066,1.001,4.395,-1.404,1.221
-0.038,0.074,1.014,5.188,-0.916,1.526
-0.040,0.079,1.005,4.456,0.854,2.014
-0.042,0.079,0.997,3.174,0.854,2.014
-0.043,0.072,0.986,1.648,-1.099,1.038
-0.041,0.067,0.989,3.357,-3.723,-0.244
-0.032,0.061,1.004,4.578,-4.028,-0.488
-0.029,0.058,1.009,5.554,-2.686,-0.122
-0.026,0.054,1.014,4.883,-2.075,0.183
-0.026,0.052,1.015,1.526,-2.014,0.854
-0.033,0.045,1.010,0.183,-2.319,0.916
-0.035,0.041,1.012,0.549,-3.662,0.183
-0.031,0.038,1.027,1.343,-4.150,0.122
-0.033,0.041,1.032,2.563,-2.502,1.343
-0.042,0.050,1.026,2.625,-1.038,1.892
-0.047,0.052,1.020,1.404,-0.977,1.648
-0.048,0.047,1.025,0.671,-2.197,1.221
-0.048,0.045,1.030,-0.366,-4.089,1.282
-0.048,0.050,1.025,-0.366,-4.089,1.343
-0.049,0.052,1.020,1.099,-4.211,0.610
-0.053,0.057,1.027,2.319,-4.944,-0.061
-0.052,0.059,1.036,5.493,-7.690,-1.892
-0.079,0.077,1.027,15.259,-0.549,1.770
-0.085,0.078,1.064,17.517,-2.869,0.977
-0.100,0.084,1.144,17.822,-1.892,1.892
-0.119,0.091,1.199,16.418,2.930,4.883
-0.121,0.098,1.217,15.137,5.249,5.432
-0.095,0.106,1.242,12.024,5.798,0.549
-0.073,0.102,1.251,9.399,4.211,-2.563
-0.031,0.090,1.249,1.282,0.366,-5.249
-0.013,0.081,1.240,-3.174,-3.540,-6.104
0.024,0.062,1.238,-4.272,-7.019,-5.798
0.036,0.047,1.236,-7.446,-15.930,-3.723
0.048,0.001,1.210,-8.728,-19.104,-2.502
0.051,-0.024,1.190,-9.338,-22.766,1.709
0.047,-0.062,1.139,-8.606,-24.170,4.578
0.026,-0.095,1.075,-5.981,-25.818,7.751
0.014,-0.118,1.026,-8.301,-24.597,3.723
0.021,-0.226,0.825,-15.869,-25.757,-3.601
0.054,-0.363,0.664,-51.575,-38.208,-24.780
0.165,-0.656,0.237,-74.646,-40.161,-28.198
0.190,-0.674,-0.040,-98.145,7.263,3.906
0.086,-0.330,-0.941,-95.642,60.791,35.339
-0.083,0.001,-1.644,-79.346,194.336,101.013
-0.668,0.804,-3.261,-47.302,242.493,115.906
-0.842,1.166,-3.808,120.178,217.224,36.194
-0.716,1.406,-3.820,219.971,161.926,-33.630
-0.667,1.191,-3.432,381.958,102.417,-132.935
-0.848,0.392,-2.471,441.162,118.835,-157.654
-1.115,-0.465,-1.109,428.894,134.521,-187.866
-1.207,-0.904,-0.281,328.552,74.402,-204.529
-1.227,-2.026,1.453,-2.136,-164.185,-169.617
0.006,0.056,1.010,0.549,-1.282,1.587
0.009,0.056,1.016,0.977,0.793,1.709
0.011,0.054,1.001,0.061,1.953,2.075
0.011,0.052,0.991,-1.343,1.587,2.197
0.014,0.050,0.991,-1.343,0.427,1.892
0.018,0.049,1.006,-2.197,-2.136,2.197
0.013,0.048,1.012,-2.747,-1.587,3.540
-0.004,0.049,1.004,-1.709,-0.061,4.089
-0.010,0.052,0.996,2.930,2.380,3.357
-0.007,0.058,1.001,4.822,2.930,2.319
0.000,0.057,1.006,4.700,3.235,0.916
0.009,0.049,1.014,2.808,2.869,0.793
0.009,0.047,1.011,-1.648,1.526,1.404
0.009,0.044,1.001,-2.869,0.671,1.892
0.009,0.043,0.993,-2.014,0.610,2.808
0.004,0.044,0.979,-0.244,1.465,2.991
0.001,0.046,0.979,3.296,2.747,1.648
0.004,0.044,0.984,3.723,2.258,0.183
0.019,0.034,0.996,1.831,-0.305,-1.892
0.024,0.025,0.994,-1.282,-1.099,-0.122
0.019,0.018,0.968,-1.587,-0.854,1.404
0.013,0.024,0.958,0.916,-0.671,2.319
0.005,0.028,0.966,2.747,-1.343,1.404
0.004,0.026,0.979,6.714,-2.319,-0.366
0.003,0.027,1.003,8.301,-1.465,-0.305
0.003,0.031,1.013,7.385,2.075,2.136
-0.005,0.041,1.007,4.639,3.784,3.723
-0.012,0.042,0.985,0.977,4.761,3.601
-0.015,0.039,0.948,1.770,4.028,2.258
-0.007,0.034,0.942,5.432,2.869,0.061
-0.012,0.039,1.038,-5.737,0.000,1.587
-0.023,0.038,1.011,-6.653,0.916,2.136
-0.026,0.040,1.000,-5.188,0.854,1.587
-0.022,0.049,1.000,-3.662,0.610,0.793
-0.018,0.051,1.004,-2.197,1.160,-0.427
-0.010,0.052,1.000,-2.869,1.648,-0.427
-0.008,0.052,0.989,-5.554,2.197,0.427
-0.005,0.050,0.971,-6.470,1.770,0.854
-0.004,0.050,0.968,-6.104,0.549,1.221
-0.005,0.055,0.965,-4.639,0.427,1.160
-0.006,0.058,0.966,-0.977,0.366,1.099
-0.010,0.063,0.970,0.732,0.061,1.038
-0.009,0.064,0.977,2.014,-1.099,0.488
-0.006,0.062,0.990,1.282,-1.282,0.549
-0.011,0.057,0.981,-0.977,-1.160,1.099
-0.015,0.055,0.977,-0.122,-2.319,1.221
-0.017,0.052,0.992,1.587,-3.113,0.732
-0.014,0.051,1.008,3.540,-3.784,-0.122
-0.013,0.043,1.036,2.625,-3.601,0.244
-0.016,0.039,1.040,-0.610,-2.258,1.709
-0.030,0.044,1.040,-1.282,-1.343,2.197
-0.033,0.046,1.044,-2.014,-1.099,1.831
-0.035,0.045,1.065,-3.357,-1.709,1.221
-0.036,0.043,1.069,-6.714,-3.174,-0.427
-0.037,0.040,1.077,-8.057,-4.150,-1.099
-0.039,0.043,1.097,-10.071,-5.432,-1.404
-0.039,0.044,1.095,-11.963,-5.066,-1.282
-0.039,0.052,1.067,-12.451,-5.432,-1.404
-0.033,0.060,1.050,-9.888,-9.460,-3.235
-0.009,0.088,1.034,-7.385,-13.062,-4.211
-0.005,0.138,1.018,8.667,-4.395,-0.488
-0.003,0.136,1.027,9.277,-5.920,-0.671
0.003,0.132,1.053,10.742,-6.775,-0.061
0.002,0.131,1.067,11.292,-6.104,0.977
-0.003,0.143,1.091,13.672,-4.700,3.113
-0.002,0.151,1.105,15.625,-4.333,3.357
0.011,0.146,1.117,18.616,-4.517,2.441
0.021,0.134,1.115,18.494,-7.019,1.831
0.037,0.093,1.133,15.686,-19.287,0.305
0.049,0.063,1.154,15.869,-35.400,-0.549
0.072,-0.007,1.219,18.555,-40.466,0.977
0.070,-0.033,1.257,24.475,-42.175,7.812
0.041,-0.085,1.312,25.208,-42.358,10.498
0.029,-0.120,1.326,21.545,-47.302,12.878
0.013,-0.220,1.309,19.226,-49.744,13.794
-0.007,-0.305,1.229,18.921,-45.593,18.066
-0.026,-0.314,1.162,19.104,-39.307,21.057
-0.068,-0.303,0.972,11.230,-32.410,20.935
-0.078,-0.332,0.854,-10.925,-39.246,2.991
-0.071,-0.477,0.582,-27.283,-40.405,-7.080
-0.073,-0.516,0.409,-50.598,0.732,-12.451
-0.122,-0.340,-0.255,-45.105,54.565,-3.601
-0.203,-0.121,-0.874,-19.104,184.998,48.157
-0.582,0.654,-2.397,-8.057,216.187,85.876
-1.074,1.484,-3.184,48.340,191.223,101.501
-1.165,1.641,-3.115,112.305,164.246,52.368
-1.205,1.458,-2.255,283.020,149.902,-64.697
-1.422,1.425,-1.669,406.860,252.991,-94.727
-1.950,1.391,-0.978,396.301,325.012,-121.277
-1.838,1.043,-0.948,140.259,264.587,-233.459
0.029,0.204,0.951,3.723,1.953,-1.282
0.028,0.204,0.958,8.728,1.221,-1.160
0.019,0.203,0.964,10.925,1.160,-1.099
0.015,0.198,0.963,13.855,0.610,-1.831
0.013,0.184,0.978,14.160,-0.549,-2.136
0.012,0.170,1.014,11.841,-3.540,-2.502
0.013,0.163,1.031,6.714,-5.188,-2.441
0.011,0.150,1.052,3.967,-4.761,-1.648
0.007,0.145,1.049,0.244,-0.854,-0.427
0.003,0.136,1.032,-0.366,1.099,-0.732
0.013,0.133,1.028,-1.160,2.258,-2.625
0.022,0.135,1.031,-1.892,2.319,-3.357
0.030,0.147,1.030,-4.517,4.517,-2.258
0.029,0.152,1.019,-8.606,9.216,0.427
0.027,0.161,0.985,-10.254,10.498,1.404
0.026,0.163,0.965,-10.071,9.460,1.160
0.028,0.163,0.941,-7.629,7.141,0.061
0.035,0.162,0.949,-2.014,1.709,-1.892
0.048,0.161,0.983,-1.587,0.366,-1.709
0.046,0.162,0.985,-3.113,0.732,0.366
0.034,0.165,0.975,-2.808,1.038,1.343
0.029,0.167,0.980,0.122,1.099,2.563
0.022,0.170,0.998,1.404,1.465,2.991
0.020,0.176,1.010,2.563,0.671,2.747
0.021,0.178,1.021,2.747,-1.160,2.136
0.028,0.169,1.043,2.930,-4.578,0.427
0.028,0.164,1.058,3.845,-5.249,0.916
0.011,0.172,1.101,5.798,-3.601,2.197
0.006,0.175,1.119,12.512,3.784,4.456
0.014,0.172,1.147,14.832,7.446,5.432
0.010,0.042,1.156,24.780,15.442,-12.817
0.048,0.036,1.189,22.095,14.648,-14.526
0.065,0.036,1.195,16.418,16.663,-15.686
0.088,0.040,1.183,12.512,18.066,-15.198
0.097,0.039,1.176,2.625,16.785,-13.367
0.125,0.034,1.171,-2.197,14.038,-12.207
0.135,0.034,1.167,-8.789,8.789,-9.521
0.131,0.051,1.145,-8.789,6.897,-8.484
0.135,0.081,1.140,-1.282,5.066,-7.751
0.148,0.089,1.151,3.662,5.859,-6.714
0.181,0.096,1.161,2.258,5.737,-5.859
0.194,0.097,1.154,-4.700,-1.038,-5.127
0.224,0.077,1.152,-7.629,-9.277,-5.859
0.242,0.053,1.179,-11.169,-31.616,-6.775
0.265,-0.014,1.276,-12.390,-40.833,-4.822
0.249,-0.049,1.354,-12.573,-45.288,4.944
0.234,-0.052,1.372,-11.658,-42.419,10.498
0.219,-0.062,1.356,-11.353,-38.635,17.761
0.216,-0.080,1.327,-19.409,-41.809,22.827
0.195,-0.126,1.239,-25.574,-43.640,26.001
0.181,-0.146,1.177,-34.607,-41.382,31.250
0.149,-0.176,1.015,-36.926,-38.513,31.372
0.143,-0.191,0.907,-42.725,-38.391,23.865
0.153,-0.258,0.670,-48.828,-44.800,18.982
0.175,-0.390,0.483,-62.866,-63.049,16.052
0.176,-0.433,0.392,-60.669,-43.030,35.522
0.123,-0.330,0.059,-44.250,-0.854,55.176
0.023,-0.182,-0.251,11.902,129.028,105.530
-0.298,0.303,-1.131,38.452,176.025,127.869
-0.503,0.648,-1.544,70.740,165.771,126.343
0.012,0.219,0.940,8.423,-0.549,1.587
0.013,0.213,0.943,14.038,0.000,-0.549
0.024,0.201,0.938,15.686,1.404,-0.916
0.029,0.195,0.920,17.456,4.395,-0.610
0.034,0.184,0.873,18.921,4.761,-0.549
0.037,0.183,0.859,24.475,3.479,-1.099
0.051,0.183,0.852,27.954,2.075,-1.709
0.057,0.178,0.858,34.790,-3.906,-2.625
0.065,0.168,0.908,37.598,-8.972,-2.625
0.063,0.166,0.948,41.382,-19.348,-1.099
0.040,0.156,1.035,43.884,-22.827,0.305
0.029,0.148,1.091,51.147,-27.588,3.113
0.023,0.116,1.223,54.260,-30.518,3.723
0.028,0.088,1.296,56.396,-40.161,4.028
0.030,0.011,1.440,54.871,-44.617,5.005
0.023,-0.072,1.529,48.584,-47.241,8.423
0.015,-0.128,1.563,45.532,-46.082,10.986
0.015,-0.218,1.611,42.664,-34.546,17.944
0.030,-0.231,1.594,29.724,-11.841,25.574
0.054,-0.243,1.428,12.695,-2.075,29.053
0.058,-0.275,1.283,-31.555,5.981,27.527
0.057,-0.383,0.945,-50.964,7.141,25.024
0.045,-0.413,0.780,-73.364,19.653,25.696
0.059,-0.371,0.399,-72.998,34.607,27.344
0.168,-0.189,-0.198,-45.471,83.679,38.757
0.123,0.025,-0.677,-6.836,157.410,79.651
-0.187,0.757,-2.012,-6.409,157.654,91.858
-0.369,1.106,-2.532,-32.959,17.761,35.828
-0.277,1.073,-2.598,-21.301,-74.219,-24.841
-0.090,0.812,-2.175,127.625,-121.765,-72.998
0.080,-0.017,1.243,16.724,-17.822,11.108
0.075,-0.028,1.250,16.235,-15.503,13.245
0.077,-0.035,1.250,19.653,-15.564,15.930
0.089,-0.084,1.264,24.963,-16.968,17.090
0.087,-0.113,1.262,39.063,-11.658,22.034
0.082,-0.151,1.183,45.288,-5.676,24.414
0.076,-0.164,1.129,55.054,2.014,29.968
0.048,-0.153,1.033,56.885,3.296,32.593
0.031,-0.133,0.969,46.509,0.427,28.259
0.038,-0.106,0.760,32.654,-6.836,21.362
0.128,-0.159,0.419,-1.953,-27.161,9.338
0.128,-0.192,0.198,0.305,6.653,35.583
-0.192,0.032,-0.597,35.706,74.585,64.697
-0.414,0.429,-1.244,163.330,221.069,109.802
-0.978,1.545,-2.304,206.848,220.459,112.732
-1.240,1.941,-2.334,210.083,88.745,24.292
-1.207,1.771,-1.846,221.802,47.607,-48.767
-1.076,1.304,-1.114,333.862,93.384,-110.229
-1.135,1.297,-0.719,401.245,159.546,-106.018
-1.327,1.329,-0.322,416.260,299.072,-124.573
-1.289,1.121,-0.296,140.747,258.423,-199.280
-0.989,-0.002,-0.002,-68.115,139.160,-218.323
-0.816,-1.005,0.153,-437.622,-114.258,-130.676
-0.200,-3.674,0.237,-539.978,-196.655,-20.081
0.649,-4.000,1.016,-426.636,-262.817,203.003
1.769,-3.343,3.367,-243.530,-229.126,222.229
1.172,-2.328,3.956,36.011,-192.017,178.345
0.972,-1.679,4.000,129.028,-216.797,167.541
1.682,0.516,4.000,133.301,-42.969,7.568
2.095,1.505,3.997,-63.904,159.546,-280.518
0.096,0.200,0.967,2.991,-1.526,-2.014
0.102,0.193,0.997,3.052,-1.770,-1.770
0.106,0.193,0.997,0.549,-0.488,0.061
0.106,0.197,0.975,-0.916,0.244,1.160
0.104,0.195,0.962,-0.977,0.366,2.686
0.094,0.188,0.961,0.305,-0.549,3.052
0.092,0.186,0.973,2.686,-2.319,3.052
0.089,0.186,0.988,3.235,-2.441,2.747
0.089,0.187,0.992,3.113,-1.892,2.869
0.082,0.193,0.999,2.686,-1.953,3.113
0.076,0.196,0.999,2.686,-1.770,3.296
0.066,0.202,1.002,3.052,-1.709,3.235
0.064,0.207,1.006,2.869,-0.916,2.930
0.062,0.217,1.000,2.075,-0.244,2.441
0.062,0.220,0.995,-0.122,-0.244,1.221
0.061,0.218,0.987,-0.854,-0.671,0.427
0.064,0.212,0.992,-0.122,-1.160,-1.465
0.067,0.209,1.003,0.610,-0.488,-2.441
0.070,0.202,1.007,0.305,0.610,-2.502
0.071,0.198,1.003,-0.732,1.648,-2.625
0.076,0.194,0.992,-1.282,1.221,-2.991
0.088,0.193,0.995,-1.892,-0.244,-3.296
0.091,0.192,0.998,-2.136,0.061,-2.808
0.088,0.190,0.991,-1.770,0.488,-2.563
0.086,0.188,0.989,-0.671,0.427,-2.502
0.085,0.189,0.995,-0.427,0.000,-2.380
0.086,0.190,0.997,-1.465,0.061,-2.075
0.091,0.190,0.988,-2.563,0.488,-1.953
0.092,0.188,0.980,-3.845,0.671,-2.197
0.095,0.179,0.974,-3.967,0.244,-2.258
0.004,0.196,0.975,-3.174,4.333,1.404
0.002,0.199,0.971,-0.854,1.770,0.183
0.009,0.198,0.984,0.244,0.793,-0.610
0.016,0.194,0.987,0.122,-0.488,-1.892
0.023,0.187,0.986,-0.244,-1.160,-1.892
0.023,0.186,0.988,-0.366,-1.465,-0.427
0.022,0.187,0.992,-0.305,-0.854,0.488
0.022,0.189,0.995,-1.099,0.793,2.747
0.023,0.190,0.986,-1.770,1.953,3.540
0.021,0.187,0.965,-2.747,2.991,4.700
0.017,0.186,0.963,-1.770,1.831,5.249
0.010,0.185,0.966,-0.977,1.099,5.371
0.008,0.189,0.968,0.793,-0.427,4.395
0.010,0.192,0.973,1.648,-1.221,3.601
0.011,0.190,0.967,3.601,-1.831,2.502
0.012,0.189,0.952,4.883,-1.648,2.380
0.013,0.191,0.952,7.507,-1.343,2.380
0.020,0.190,0.959,8.423,-1.526,2.502
0.021,0.187,0.968,10.193,-3.540,3.235
0.021,0.184,0.999,10.864,-5.127,3.662
0.009,0.191,1.036,13.794,-8.484,4.822
0.007,0.198,1.057,20.752,-9.399,7.141
0.015,0.189,1.099,24.597,-9.766,8.240
0.018,0.167,1.118,31.555,-13.977,10.254
0.016,0.117,1.166,34.790,-17.212,10.498
0.020,0.095,1.193,38.757,-25.146,8.484
0.031,0.031,1.240,38.879,-29.663,7.080
0.034,-0.010,1.250,37.231,-35.950,6.409
0.036,-0.071,1.236,35.706,-36.621,7.263
0.036,-0.093,1.213,29.053,-35.156,9.521
0.045,0.028,0.578,-11.902,5.859,2.075
0.071,-0.009,0.426,-15.198,12.878,-0.854
0.058,-0.026,0.025,-10.681,45.654,0.244
0.003,0.038,-0.283,4.211,77.759,4.456
-0.244,0.277,-1.191,47.485,136.963,18.555
-0.423,0.453,-1.644,82.275,82.947,32.410
-0.722,0.889,-1.986,111.816,30.334,21.301
-0.796,1.065,-1.905,231.384,14.709,-37.048
-0.973,1.226,-1.608,307.739,55.420,-59.143
-1.136,1.262,-1.450,411.255,151.550,-87.280
-1.498,1.063,-1.256,406.311,181.702,-110.840
-1.592,0.698,-1.191,253.113,132.568,-175.781
-1.315,-0.401,-0.481,129.456,44.006,-189.697
-0.641,-2.185,0.753,-163.818,-166.138,-96.985
-0.060,-3.078,1.591,-285.095,-167.236,67.871
1.305,-2.530,3.726,-205.078,-16.907,70.984
1.701,-2.014,3.580,-112.488,177.063,-20.081
1.535,-1.791,2.369,-114.014,7.751,19.348
1.207,-1.052,3.276,61.768,-217.163,102.600
1.135,-0.834,3.676,177.612,-146.484,27.832
1.314,-0.345,4.000,213.989,-103.943,-152.893
1.407,0.153,3.962,136.292,-45.593,-160.095
1.440,0.854,3.370,91.064,-18.433,-144.104
1.303,0.920,3.024,-18.860,38.635,-59.814
0.411,0.583,2.076,-72.327,72.083,-0.854
-0.168,0.397,1.555,-110.413,82.336,69.458
-0.772,0.228,1.007,-97.778,67.200,65.125
-0.520,0.070,0.953,-63.293,54.016,5.005
-0.298,-0.054,0.955,-42.603,55.481,-41.687
0.016,-0.226,0.888,-36.194,52.124,-42.603
-0.061,0.734,-1.334,120.850,77.148,77.393
-0.251,0.945,-1.455,195.496,57.129,57.495
-0.647,1.268,-1.420,233.398,51.086,31.311
-0.804,1.317,-1.359,299.927,64.453,-31.494
-0.979,1.021,-1.294,311.340,74.524,-59.753
-1.013,0.690,-1.173,234.070,30.762,-83.618
-0.988,-0.148,-0.251,151.611,-21.790,-75.256
-0.997,-0.853,0.860,-52.612,-57.800,-30.151
-1.057,-1.235,1.017,-207.947,15.686,23.926
-0.637,-2.228,1.413,-216.614,23.315,35.828
0.004,-2.558,2.068,-79.712,30.823,33.081
1.026,-2.587,3.190,-16.052,40.771,30.273
1.263,-2.359,3.554,56.824,-74.707,34.790
1.377,-1.371,4.000,94.788,-119.080,7.385
1.775,-0.279,4.000,114.746,-46.875,-127.197
2.050,0.137,3.821,29.785,10.925,-170.776
2.184,0.674,3.135,-7.935,9.583,-124.695
1.804,0.621,2.860,-69.885,54.626,44.800
0.242,0.139,1.978,-105.225,79.956,143.311
-0.509,0.009,1.470,-125.793,44.312,240.540
-1.305,0.131,0.726,-107.056,17.944,205.383
-0.987,0.255,0.497,-43.640,19.470,43.640
-0.581,0.152,0.635,-5.798,33.813,-24.719
0.076,-0.089,1.037,33.325,39.673,-75.378
0.223,-0.121,1.077,11.108,27.954,-48.401
0.259,-0.092,0.952,0.549,15.869,-26.917
0.214,-0.079,0.948,11.230,-6.836,-3.357
0.102,-0.044,1.015,21.423,-5.432,-3.540
0.082,-0.046,1.055,29.236,6.775,-21.606
0.139,-0.114,1.111,22.949,12.024,-31.677
0.065,0.174,1.014,0.671,-1.953,1.648
0.062,0.176,1.013,0.549,-0.854,2.808
0.056,0.184,0.999,0.244,0.366,2.808
0.056,0.186,0.985,0.061,1.526,1.587
0.063,0.183,0.966,0.488,1.038,1.160
0.064,0.179,0.961,1.831,-0.488,1.465
0.060,0.175,0.961,2.563,-0.854,1.892
0.057,0.176,0.963,3.235,0.244,2.563
0.056,0.176,0.956,3.113,0.977,2.747
0.055,0.174,0.950,3.357,0.671,1.831
0.054,0.173,0.953,3.845,0.122,1.282
0.047,0.170,0.960,5.066,-0.183,0.793
0.045,0.167,0.965,6.836,0.366,-0.061
0.051,0.169,0.973,7.385,0.061,-0.366
0.055,0.169,0.980,7.263,-1.465,0.122
0.055,0.168,1.005,6.836,-1.587,0.671
0.051,0.168,1.013,6.165,-0.977,1.221
0.044,0.169,1.025,6.226,-0.854,0.854
0.046,0.170,1.033,6.042,-0.305,-0.305
0.056,0.165,1.039,5.066,-0.122,-0.916
0.059,0.163,1.035,2.563,-0.854,-1.465
0.063,0.157,1.030,1.709,-2.014,-1.648
0.072,0.154,1.047,-0.244,-3.906,-1.587
0.076,0.154,1.050,-4.517,-2.197,-0.427
0.074,0.155,1.031,-6.409,-0.366,0.488
0.070,0.156,1.018,-7.324,2.625,1.709
0.061,0.157,0.992,-6.836,3.174,1.709
0.061,0.157,0.986,-5.554,2.197,1.343
0.065,0.160,0.976,-5.371,1.526,1.465
0.065,0.163,0.971,-5.554,0.977,1.770
0.070,0.181,0.923,1.709,-3.235,6.836
0.060,0.181,0.942,5.188,-5.493,5.066
0.065,0.182,0.965,10.864,-6.165,0.916
0.085,0.181,0.979,11.047,-4.944,0.000
0.087,0.179,0.966,8.423,-4.761,0.183
0.084,0.166,0.953,7.996,-6.470,0.305
0.082,0.157,0.963,10.620,-10.681,-0.488
0.075,0.156,0.995,12.939,-12.146,-1.160
0.068,0.158,1.012,17.090,-12.756,-2.625
0.062,0.149,1.043,17.883,-12.268,-2.869
0.057,0.134,1.076,15.442,-11.719,-1.038
0.055,0.128,1.088,9.644,-10.010,2.502
0.049,0.128,1.093,7.141,-9.216,3.357
0.050,0.128,1.094,4.883,-9.155,2.380
0.060,0.114,1.092,4.456,-9.216,1.892
0.062,0.103,1.090,4.700,-8.118,2.869
0.067,0.089,1.091,5.310,-7.507,3.479
0.071,0.086,1.091,5.249,-7.629,5.310
0.082,0.080,1.087,4.517,-8.972,6.165
0.089,0.072,1.080,4.517,-14.343,7.263
0.090,0.045,1.080,6.836,-16.846,8.423
0.079,0.038,1.095,15.381,-19.043,11.353
0.049,0.036,1.146,20.203,-19.836,12.207
0.037,0.030,1.178,26.184,-19.897,13.123
0.024,-0.005,1.230,27.161,-18.982,12.634
0.022,-0.031,1.249,27.161,-18.494,11.169
0.018,-0.039,1.238,18.555,-16.541,6.714
0.021,-0.095,1.132,8.423,-14.404,0.977
0.047,-0.151,1.030,-23.804,-14.587,-14.343
0.178,-0.307,0.750,-40.222,-15.991,-21.362
0.116,0.123,0.984,4.272,2.441,4.761
0.118,0.126,0.986,3.052,1.587,5.493
0.120,0.125,0.998,2.441,1.587,5.859
0.119,0.121,1.002,2.136,2.197,7.080
0.112,0.119,1.010,2.747,2.258,7.263
0.111,0.118,1.018,4.028,1.221,7.019
0.109,0.114,1.043,4.395,-0.122,6.470
0.110,0.115,1.054,5.310,-3.601,4.395
0.109,0.123,1.072,5.798,-5.432,2.747
0.111,0.127,1.084,6.409,-9.521,-0.183
0.124,0.127,1.134,6.165,-11.780,-0.610
0.130,0.120,1.174,4.211,-17.334,-0.916
0.136,0.095,1.251,1.648,-20.264,-0.549
0.139,0.084,1.279,-5.493,-23.865,0.610
0.149,0.070,1.302,-7.996,-24.231,1.221
0.146,0.055,1.315,-6.409,-25.269,4.211
0.126,0.025,1.396,-1.648,-24.841,5.859
0.132,0.003,1.477,6.470,-18.555,7.324
0.138,-0.002,1.483,5.066,-12.207,8.606
0.149,-0.014,1.410,-9.583,-2.197,10.498
0.152,-0.033,1.355,-27.771,-5.371,10.498
0.164,-0.088,1.260,-35.339,-7.202,10.742
0.171,-0.112,1.207,-48.523,-3.296,12.146
0.171,-0.141,1.048,-54.871,0.366,12.756
0.151,-0.164,0.937,-67.749,6.897,8.972
0.133,-0.270,0.631,-73.914,10.437,4.822
0.151,-0.321,0.437,-73.792,23.682,3.418
0.143,-0.248,-0.212,-59.509,48.584,11.230
0.054,-0.081,-0.820,-1.343,142.090,34.973
-0.194,0.460,-2.755,22.949,153.198,47.485
0.117,0.166,0.980,9.033,-0.977,0.305
0.117,0.167,0.989,9.277,-0.671,-0.610
0.118,0.163,0.999,7.874,0.244,-0.610
0.117,0.156,0.995,6.104,1.282,0.732
0.115,0.157,0.980,3.296,2.686,3.418
0.113,0.169,0.959,2.563,2.747,4.028
0.116,0.170,0.952,2.563,2.380,3.052
0.119,0.163,0.947,3.296,1.831,2.991
0.109,0.162,0.956,4.333,1.221,5.127
0.104,0.165,0.956,4.822,1.587,6.104
0.104,0.173,0.952,6.226,1.160,6.836
0.105,0.174,0.958,7.141,-0.305,6.775
0.100,0.171,0.973,8.911,-3.967,5.066
0.100,0.171,0.980,10.498,-5.676,3.052
0.104,0.172,0.992,13.245,-9.705,1.160
0.108,0.171,1.024,13.916,-11.475,1.953
0.104,0.163,1.047,14.526,-12.573,4.517
0.103,0.156,1.056,14.343,-12.024,6.409
0.105,0.141,1.073,13.916,-12.817,7.080
0.109,0.136,1.081,13.794,-16.785,6.836
0.114,0.117,1.095,13.672,-19.470,6.348
0.112,0.105,1.108,12.878,-26.062,5.981
0.107,0.080,1.151,12.329,-29.419,6.470
0.106,0.065,1.170,10.498,-33.203,9.583
0.108,0.036,1.184,9.521,-32.227,11.719
0.107,0.030,1.180,10.986,-24.536,16.174
0.099,0.037,1.160,13.000,-19.897,18.372
0.090,0.043,1.145,14.771,-12.085,22.278
0.073,0.046,1.092,13.794,-9.216,23.621
0.068,0.050,1.058,8.911,-8.789,25.574
0.204,0.248,0.960,15.747,-3.174,-7.263
0.203,0.244,0.956,15.320,-3.723,-7.446
0.207,0.228,0.946,15.137,-5.005,-7.446
0.209,0.220,0.954,14.771,-7.935,-6.348
0.207,0.202,0.979,14.282,-8.179,-5.493
0.206,0.196,0.983,13.000,-6.042,-3.906
0.200,0.194,0.983,12.634,-4.333,-3.418
0.195,0.194,0.982,12.756,-0.366,-3.418
0.190,0.188,0.978,12.939,1.526,-3.662
0.190,0.187,0.976,12.817,4.944,-4.211
0.196,0.184,0.973,12.268,6.226,-4.150
0.205,0.196,0.970,9.583,6.042,-2.319
0.201,0.205,0.968,7.507,5.432,-1.343
0.195,0.218,0.960,4.333,5.676,-1.221
0.195,0.219,0.952,4.089,6.897,-2.869
0.206,0.211,0.921,4.700,6.592,-3.723
0.215,0.205,0.912,6.775,1.831,-4.211
0.226,0.207,0.940,7.812,-1.160,-3.601
0.226,0.209,0.964,8.484,-2.441,-2.502
0.220,0.214,0.984,8.057,-1.343,-2.258
0.215,0.216,0.980,7.019,-1.221,-2.625
0.211,0.207,0.978,6.470,-2.869,-3.052
0.211,0.199,0.985,6.653,-6.653,-3.662
0.216,0.199,1.003,7.324,-7.324,-2.991
0.218,0.205,1.022,8.545,-5.737,0.122
0.211,0.204,1.030,7.874,-3.052,2.991
0.198,0.192,1.038,7.507,-1.770,3.174
0.196,0.188,1.047,6.653,-0.549,1.404
0.197,0.182,1.062,5.981,-0.122,0.305
0.198,0.176,1.059,3.052,0.122,-1.160
0.113,0.180,0.960,0.366,14.893,2.258
0.112,0.183,0.948,1.953,15.686,2.808
0.118,0.183,0.941,3.967,13.977,2.441
0.123,0.187,0.943,7.935,8.240,1.038
0.129,0.199,0.948,9.216,6.104,-0.427
0.128,0.203,0.939,11.169,3.845,-5.981
0.122,0.191,0.929,12.695,2.930,-9.033
0.123,0.184,0.940,15.137,1.648,-9.033
0.131,0.177,0.974,14.954,2.319,-7.324
0.133,0.174,0.969,11.597,5.249,-3.052
0.136,0.178,0.920,10.010,5.005,-0.610
0.121,0.178,0.906,9.583,-1.770,1.648
0.116,0.175,0.916,11.230,-6.592,0.977
0.125,0.166,0.977,15.991,-15.991,-0.366
0.131,0.162,1.017,17.334,-20.569,2.747
0.124,0.158,1.069,16.663,-19.775,5.005
0.112,0.157,1.080,14.893,-15.503,7.568
0.103,0.156,1.096,13.733,-14.282,7.935
0.107,0.153,1.111,10.437,-15.625,7.385
0.116,0.142,1.152,9.277,-17.395,6.226
0.119,0.137,1.170,7.507,-20.569,4.578
0.117,0.129,1.189,5.310,-21.912,4.517
0.112,0.122,1.193,-1.709,-27.161,3.479
0.102,0.107,1.215,-4.150,-29.663,2.258
0.102,0.102,1.224,-7.324,-27.527,2.441
0.113,0.099,1.201,-9.827,-24.841,4.272
0.109,0.097,1.151,-18.555,-22.522,9.094
0.102,0.093,1.128,-27.771,-21.118,12.024
0.090,0.076,1.078,-30.457,-19.714,13.184
0.079,0.073,1.045,-31.738,-16.785,14.404
0.125,0.273,0.649,-8.301,-10.193,16.785
0.115,0.292,0.661,-3.052,-11.841,13.245
0.117,0.297,0.677,4.944,-19.470,4.456
0.134,0.287,0.707,7.202,-24.170,1.038
0.146,0.275,0.731,9.216,-32.654,-1.526
0.183,0.259,0.821,8.118,-34.912,-0.305
0.191,0.258,0.866,1.526,-31.433,5.615
0.172,0.259,0.878,-0.793,-26.428,7.690
0.153,0.259,0.860,4.456,-18.555,8.911
0.123,0.278,0.866,10.986,-17.029,8.911
0.118,0.290,0.890,23.010,-15.137,7.019
0.128,0.298,0.956,25.879,-13.672,6.042
0.135,0.296,0.985,24.475,-8.179,7.629
0.133,0.293,1.005,21.973,-4.822,9.399
0.124,0.292,0.997,19.531,-2.075,11.414
0.097,0.286,0.975,20.508,-4.456,11.475
0.085,0.277,0.972,25.757,-14.709,8.728
0.089,0.248,1.000,28.809,-20.813,6.714
0.112,0.220,1.069,31.738,-29.968,5.310
0.120,0.208,1.104,31.494,-30.334,6.592
0.114,0.200,1.169,28.564,-22.095,13.184
0.097,0.200,1.187,26.489,-9.033,18.921
0.068,0.202,1.201,26.306,-2.380,20.081
0.066,0.205,1.204,21.423,4.395,19.775
0.078,0.196,1.213,15.564,2.808,16.663
0.086,0.180,1.215,0.549,-7.996,9.521
0.108,0.148,1.198,-6.226,-14.221,6.104
0.115,0.136,1.181,-12.573,-23.987,-0.977
0.116,0.127,1.151,-11.658,-25.696,-2.686
0.115,0.119,1.137,-8.362,-18.799,-2.258
0.144,0.243,0.970,4.272,2.625,5.737
0.138,0.240,0.980,4.395,0.366,5.310
0.135,0.228,1.004,4.639,-0.488,5.005
0.134,0.216,1.010,5.249,-1.099,5.676
0.130,0.203,1.025,5.737,-1.282,6.409
0.128,0.201,1.033,5.859,0.427,7.385
0.128,0.208,1.033,4.883,1.709,8.118
0.124,0.213,1.023,1.160,4.333,10.437
0.112,0.219,0.986,-0.488,4.883,10.925
0.110,0.222,0.967,-0.793,3.113,10.193
0.116,0.233,0.953,0.305,1.892,9.583
0.117,0.239,0.954,2.502,0.854,8.789
0.112,0.241,0.947,3.235,0.610,8.179
0.111,0.238,0.946,4.578,-1.099,7.019
0.116,0.234,0.958,5.310,-1.709,6.897
0.115,0.234,0.964,5.676,-0.549,7.629
0.107,0.236,0.960,5.554,0.244,7.751
0.102,0.236,0.953,5.676,-0.061,6.592
0.101,0.232,0.945,6.165,-1.099,5.432
0.107,0.225,0.966,7.751,-2.136,3.601
0.108,0.224,0.980,8.179,-1.404,3.174
0.107,0.221,0.982,7.019,0.916,2.686
0.108,0.217,0.973,5.676,1.343,2.319
0.118,0.213,0.976,3.845,-0.916,1.160
0.126,0.214,0.986,3.906,-2.014,0.854
0.143,0.221,1.011,4.639,-1.221,1.587
0.147,0.222,1.019,2.319,1.160,3.052
0.153,0.218,1.025,-0.244,1.770,4.761
0.150,0.205,1.025,-4.761,1.770,8.667
0.142,0.188,1.010,-4.822,0.549,10.071
0.199,0.316,0.850,14.465,-8.423,4.883
0.181,0.316,0.873,14.343,-8.667,6.409
0.179,0.309,0.892,13.489,-7.263,7.690
0.182,0.295,0.923,12.817,-5.798,8.484
0.173,0.297,0.928,10.315,-4.211,11.047
0.152,0.303,0.921,9.277,-4.089,11.475
0.148,0.305,0.923,9.277,-4.761,11.108
0.149,0.308,0.946,9.583,-4.761,10.986
0.148,0.311,0.948,9.033,-2.625,11.047
0.145,0.322,0.916,8.667,-1.892,10.681
0.145,0.328,0.896,9.338,-4.395,8.850
0.143,0.329,0.897,11.475,-8.179,7.019
0.134,0.322,0.906,13.000,-9.521,5.859
0.130,0.318,0.908,16.785,-12.390,2.747
0.133,0.315,0.928,18.982,-13.855,1.038
0.138,0.311,0.945,21.790,-14.587,-1.221
0.140,0.300,0.977,21.423,-13.733,-1.404
0.140,0.294,0.988,17.883,-11.047,-1.709
0.143,0.281,0.990,15.625,-9.766,-1.770
0.143,0.275,0.984,12.939,-8.301,-2.197
0.146,0.265,0.959,12.512,-8.057,-3.174
0.147,0.258,0.947,14.099,-9.338,-5.310
0.149,0.244,0.954,15.564,-10.315,-5.615
0.155,0.242,0.963,17.517,-11.230,-4.700
0.161,0.243,0.981,17.578,-10.437,-3.479
0.149,0.251,0.968,16.785,-7.385,-1.953
0.146,0.253,0.961,16.479,-7.019,-1.831
0.143,0.248,0.966,16.418,-9.155,-2.197
0.143,0.244,0.971,16.663,-9.949,-2.441
0.138,0.238,0.974,17.639,-9.155,-2.563
0.034,0.095,0.848,15.381,-17.029,8.789
0.032,0.096,0.874,16.052,-17.944,11.963
0.018,0.098,0.925,16.602,-16.357,14.160
0.014,0.105,0.949,16.174,-12.207,19.348
0.017,0.126,0.992,14.954,-9.583,21.729
0.013,0.139,1.004,12.146,-2.197,25.146
-0.011,0.164,1.004,11.841,1.587,24.963
-0.019,0.171,1.003,13.367,5.371,20.142
-0.012,0.173,1.016,13.611,5.188,16.968
0.001,0.172,1.035,10.193,4.395,12.939
0.023,0.174,1.058,6.104,5.371,11.841
0.025,0.174,1.044,-2.441,7.996,8.667
0.025,0.167,1.003,-4.822,7.568,6.653
0.028,0.163,0.993,-3.845,3.479,3.357
0.035,0.160,1.000,-1.160,1.770,2.197
0.036,0.163,1.009,4.517,0.366,0.916
0.035,0.166,1.017,8.057,-0.122,-0.366
0.035,0.165,1.033,8.362,-0.061,-0.916
0.035,0.161,1.032,6.348,0.122,-1.953
0.032,0.155,1.004,4.944,-0.183,-2.441
0.032,0.151,0.992,4.150,-2.136,-3.601
0.031,0.140,0.994,4.272,-3.296,-3.967
0.029,0.137,0.999,4.517,-3.784,-5.127
0.033,0.135,1.003,4.639,-3.235,-5.798
0.043,0.138,0.998,3.357,-1.221,-6.165
0.047,0.138,0.991,2.136,-0.366,-6.042
0.045,0.136,0.977,0.366,-0.305,-5.371
0.044,0.136,0.976,1.221,-1.343,-5.554
0.048,0.138,0.984,2.197,-1.709,-6.287
0.054,0.143,0.987,3.967,-0.610,-7.324
0.071,0.172,0.900,22.522,-12.451,-2.136
0.052,0.165,0.918,25.330,-13.245,-1.404
0.041,0.169,0.938,31.067,-13.672,-0.977
0.029,0.172,0.990,32.654,-12.512,-1.343
0.025,0.175,1.009,31.555,-6.897,-2.625
0.026,0.180,1.006,29.602,-3.723,-3.723
0.028,0.181,0.964,24.841,-1.648,-5.981
0.031,0.182,0.952,23.254,-3.662,-7.141
0.048,0.182,0.967,21.973,-9.460,-10.193
0.056,0.182,0.978,21.790,-10.254,-13.000
0.069,0.185,0.971,21.912,-8.667,-14.404
0.080,0.182,0.957,21.484,-5.371,-16.174
0.103,0.171,0.938,20.691,-4.333,-15.869
0.112,0.165,0.933,19.287,-2.930,-13.489
0.114,0.158,0.925,19.592,-2.441,-12.024
0.108,0.150,0.923,23.010,-2.014,-10.498
0.098,0.128,0.946,25.513,-1.892,-10.193
0.099,0.119,0.963,29.053,-1.404,-9.766
0.103,0.111,0.993,29.785,-2.014,-9.399
0.091,0.109,1.029,29.297,-4.517,-7.568
0.081,0.110,1.051,28.564,-5.676,-5.798
0.070,0.111,1.080,28.015,-5.920,-5.676
0.066,0.108,1.090,26.428,-7.812,-5.737
0.055,0.096,1.117,25.452,-9.155,-5.798
0.053,0.091,1.134,24.414,-11.719,-6.287
0.053,0.084,1.183,23.743,-13.245,-6.104
0.045,0.078,1.216,21.729,-17.273,-4.822
0.010,0.069,1.292,20.691,-19.165,-5.005
0.000,0.064,1.328,17.944,-21.851,-7.507
0.004,0.056,1.392,15.381,-23.804,-9.155
0.047,0.042,0.965,10.132,2.930,8.606
0.038,0.048,0.969,14.404,3.540,11.597
0.017,0.065,0.979,15.686,4.578,12.390
0.010,0.073,0.980,16.296,7.019,11.902
0.007,0.078,0.982,16.296,7.080,10.986
0.006,0.078,0.982,17.029,5.188,8.789
0.006,0.076,0.990,17.334,4.150,7.690
0.008,0.077,1.003,16.357,2.747,4.944
0.009,0.080,1.026,14.893,3.357,3.113
0.013,0.080,1.025,10.437,5.493,-0.732
0.024,0.078,1.000,8.118,5.127,-2.747
0.028,0.073,0.987,6.042,2.014,-7.141
0.042,0.066,0.973,6.592,0.793,-8.484
0.062,0.066,0.985,9.216,-0.244,-9.155
0.071,0.067,0.993,10.803,1.099,-9.277
0.085,0.065,0.989,10.620,2.380,-9.277
0.090,0.062,0.979,9.399,3.052,-8.789
0.094,0.052,0.979,9.155,2.197,-8.179
0.093,0.050,0.987,10.071,0.427,-6.409
0.092,0.047,0.997,11.169,0.000,-5.798
0.093,0.045,1.002,13.916,-0.732,-4.883
0.092,0.043,1.035,15.320,-0.977,-4.456
0.090,0.043,1.059,17.456,-0.610,-3.235
0.080,0.038,1.087,17.700,0.244,-2.625
0.076,0.035,1.090,17.578,0.671,-2.563
0.076,0.034,1.109,17.334,-0.427,-3.174
0.083,0.028,1.143,15.503,-3.052,-4.883
0.089,0.021,1.157,13.550,-4.211,-5.615
0.104,0.004,1.181,7.874,-6.836,-7.263
0.112,-0.000,1.190,0.610,-10.193,-8.972
0.210,-0.012,0.861,-33.630,-51.758,-9.521
0.220,-0.010,0.894,-33.569,-43.518,-7.751
0.220,0.014,0.924,-35.583,-34.546,-3.662
0.204,0.026,0.915,-38.818,-14.404,6.165
0.171,0.039,0.867,-37.537,-6.470,9.277
0.155,0.053,0.819,-28.015,-0.305,10.071
0.152,0.066,0.806,-13.977,-5.981,5.249
0.159,0.087,0.824,-8.118,-9.644,2.197
0.172,0.095,0.844,-4.456,-13.733,-1.465
0.185,0.107,0.878,-5.798,-15.015,-1.892
0.178,0.109,0.878,-9.888,-13.672,-1.404
0.160,0.115,0.843,-10.681,-12.268,-1.892
0.147,0.134,0.830,-5.127,-11.841,-7.141
0.145,0.139,0.835,5.615,-8.545,-11.475
0.154,0.132,0.857,9.827,-6.409,-12.512
0.159,0.130,0.876,13.367,-4.272,-14.343
0.173,0.127,0.912,13.245,-3.235,-15.686
0.180,0.122,0.918,10.986,-0.244,-14.832
0.178,0.111,0.910,9.705,0.244,-13.489
0.168,0.109,0.905,10.132,-1.282,-16.174
0.158,0.116,0.904,11.963,-2.686,-18.555
0.161,0.117,0.935,16.113,-5.371,-21.606
0.161,0.115,0.955,17.822,-5.554,-24.231
0.171,0.092,0.987,18.372,-3.052,-30.396
0.175,0.087,0.996,16.724,-1.953,-31.006
0.160,0.098,1.003,15.015,-3.174,-29.663
0.150,0.103,1.008,18.555,-4.883,-28.381
0.148,0.101,1.020,20.996,-5.371,-27.466
0.153,0.095,1.026,22.461,-6.958,-24.170
0.167,0.090,1.046,20.874,-8.179,-21.973
0.152,0.076,0.852,9.521,-5.371,-0.366
0.166,0.062,0.838,8.972,2.197,2.930
0.152,0.058,0.814,10.559,14.404,8.728
0.109,0.064,0.805,15.137,17.273,7.996
0.095,0.066,0.823,26.794,15.503,0.061
0.089,0.050,0.884,30.029,9.766,-3.845
0.095,0.031,0.924,27.405,-6.470,-6.836
0.117,-0.003,1.003,22.888,-12.573,-7.019
0.125,-0.013,1.028,14.709,-15.381,-8.484
0.129,-0.018,1.049,12.817,-13.062,-8.423
0.126,-0.015,1.055,14.038,-3.418,-6.653
0.126,-0.018,1.061,16.296,3.174,-5.981
0.134,-0.019,1.061,20.081,17.517,-4.822
0.136,0.023,1.042,19.592,22.888,-5.005
0.140,0.055,1.018,11.230,21.973,-7.324
0.168,0.083,0.986,5.127,15.137,-8.606
0.191,0.079,0.986,-3.479,1.587,-9.155
0.194,0.079,0.982,-2.930,-0.366,-7.080
0.187,0.083,0.977,0.793,1.953,-5.432
0.184,0.082,0.976,11.353,8.972,-2.258
0.185,0.081,0.989,15.625,11.658,-0.977
0.184,0.078,1.004,17.944,14.404,1.221
0.174,0.076,1.031,16.418,14.832,2.136
0.165,0.078,1.031,10.620,12.085,1.282
0.165,0.068,1.019,7.202,7.629,-0.610
0.168,0.055,1.020,2.014,-2.930,-4.639
0.175,0.037,1.028,1.465,-6.165,-6.104
0.177,0.036,1.038,3.418,-7.019,-6.653
0.185,0.047,1.060,4.089,-5.737,-6.165
0.184,0.056,1.055,2.441,-2.441,-5.005
0.207,0.158,0.970,36.926,-10.925,5.981
0.199,0.162,0.977,29.541,-2.930,10.071
0.182,0.160,0.964,25.940,0.488,10.559
0.177,0.148,0.947,18.921,0.061,9.949
0.169,0.126,0.929,15.625,-5.066,9.644
0.170,0.122,0.949,11.841,-16.602,9.521
0.181,0.117,1.029,9.888,-17.700,10.803
0.178,0.123,1.066,2.258,-7.446,16.724
0.137,0.145,1.056,-1.770,0.916,18.616
0.116,0.147,1.022,-5.615,10.742,15.991
0.107,0.144,0.987,-5.676,9.277,13.123
0.111,0.151,1.001,-7.874,0.610,8.057
0.113,0.151,0.998,-13.245,-3.723,4.028
0.128,0.141,0.988,-14.832,-4.089,2.747
0.136,0.140,0.989,-15.625,-0.854,2.991
0.136,0.151,0.971,-14.771,2.075,3.052
0.136,0.163,0.934,-12.268,5.615,2.380
0.135,0.170,0.924,-10.864,5.005,2.319
0.134,0.179,0.918,-5.676,2.441,1.221
0.134,0.199,0.915,-2.014,0.793,0.305
0.136,0.211,0.955,5.493,-3.174,-1.709
0.142,0.212,0.986,5.066,-5.981,-2.136
0.152,0.203,1.025,0.549,-6.653,-1.465
0.148,0.197,1.022,-8.728,-6.287,0.488
0.140,0.190,0.993,-10.193,-6.714,1.221
0.136,0.188,0.994,-5.737,-9.399,1.404
0.122,0.186,1.014,-1.892,-10.010,0.671
0.119,0.190,1.023,3.906,-8.911,-2.075
0.125,0.191,1.040,4.944,-8.179,-3.601
0.141,0.178,1.041,1.343,-7.263,-5.066
