aX,aY,aZ,gX,gY,gZ
0.216,-1.263,1.423,19.226,6.470,11.108
0.198,-1.577,1.359,48.584,82.581,-16.357
0.147,-2.112,0.769,56.091,112.488,-22.949
0.146,-2.219,0.390,5.432,28.748,1.953
-0.045,-2.130,0.262,-33.264,-67.261,23.254
-0.229,-1.895,0.508,-57.983,-163.269,51.636
-0.370,-1.097,0.949,-45.471,-129.456,59.692
-0.330,-0.640,1.021,-28.076,-18.005,89.661
-0.260,0.160,0.973,-32.715,7.629,101.074
-0.231,0.434,0.948,-37.354,-3.479,96.558
-0.235,0.801,1.031,-21.851,-3.601,93.689
-0.227,0.875,1.071,19.104,32.166,86.182
-0.180,0.952,1.140,26.123,40.405,82.275
-0.165,1.015,1.168,17.700,31.555,72.754
-0.111,1.116,1.190,16.846,26.733,69.275
-0.077,1.142,1.234,13.916,23.987,68.481
-0.044,1.123,1.198,7.385,26.855,67.688
-0.074,1.111,1.107,1.709,29.846,66.895
-0.208,1.197,0.977,7.019,31.616,64.758
-0.265,1.261,0.973,15.137,30.884,58.716
-0.289,1.302,0.997,28.870,24.170,36.865
-0.255,1.247,1.039,35.400,20.203,25.513
-0.227,1.156,1.039,49.744,19.836,5.005
-0.134,0.891,0.970,51.208,18.860,-8.728
-0.071,0.717,0.951,27.222,-3.845,-45.044
0.106,0.305,0.987,6.531,-17.822,-59.326
0.173,0.133,1.013,-11.414,-21.545,-58.716
0.225,-0.073,1.021,-4.578,-13.672,-48.950
0.235,-0.132,1.028,0.183,-3.723,-30.090
0.244,-0.172,1.049,-4.333,-0.183,-22.217
0.168,-1.466,1.004,5.371,30.273,15.381
0.121,-1.634,1.005,-22.156,-2.686,53.223
-0.050,-1.815,1.170,-43.884,-13.306,74.158
-0.146,-1.811,1.239,-65.186,17.944,113.159
-0.303,-1.552,1.095,-62.500,46.753,127.319
-0.340,-1.315,0.931,-53.162,62.744,138.000
-0.328,-0.866,0.836,-54.932,46.509,137.817
-0.305,-0.614,0.887,-70.740,28.076,134.705
-0.191,-0.028,0.743,-75.317,34.424,130.432
-0.134,0.300,0.602,-67.383,30.701,124.268
-0.152,0.912,0.482,-55.969,20.264,121.948
-0.220,1.106,0.527,-20.752,21.973,103.455
-0.168,1.256,0.666,-7.202,21.912,85.266
-0.068,1.256,0.786,4.761,-5.005,59.875
0.029,1.247,1.058,15.564,-11.414,60.852
-0.031,1.291,1.164,52.917,8.667,73.669
-0.247,1.426,1.271,64.087,17.578,71.777
-0.327,1.467,1.293,61.829,19.104,60.547
-0.359,1.471,1.213,36.438,20.752,22.705
-0.316,1.403,1.118,28.564,25.391,2.319
-0.241,1.274,1.030,30.090,28.442,-31.738
-0.035,0.892,0.907,33.203,25.452,-43.701
0.072,0.692,0.873,31.433,13.184,-57.251
0.235,0.348,0.863,25.879,4.211,-58.655
0.284,0.210,0.878,15.686,-11.230,-50.903
0.348,0.037,0.922,16.846,-14.648,-41.260
0.355,0.010,0.953,25.879,-14.099,-16.541
0.319,0.033,1.026,26.184,-12.817,-5.920
0.291,0.045,1.062,16.602,-6.897,6.287
0.226,0.070,1.110,10.071,-2.014,9.460
0.301,-1.247,1.309,21.851,14.099,17.822
0.266,-1.412,1.247,43.884,54.871,29.785
0.096,-1.521,0.925,38.574,58.716,33.997
-0.028,-1.545,0.822,-11.841,2.075,11.780
-0.194,-1.711,0.796,-31.616,-28.076,-1.709
-0.211,-1.702,0.821,-26.550,-35.034,31.250
-0.249,-1.222,0.897,-13.245,-14.282,69.031
-0.244,-0.839,0.878,-3.113,39.429,108.582
-0.184,-0.076,0.651,-15.625,46.143,103.333
-0.147,0.224,0.576,-67.993,-9.583,72.571
-0.107,0.516,0.722,-85.449,-38.818,58.716
-0.035,0.515,0.773,-61.035,-25.085,45.471
0.110,0.594,0.817,-35.034,-11.963,57.556
0.074,0.748,0.927,-5.859,-17.639,85.571
-0.029,0.987,1.180,-4.150,-21.240,87.402
-0.078,1.054,1.264,-9.277,-13.062,85.937
-0.149,1.212,1.313,-8.972,-3.601,87.280
-0.151,1.331,1.266,4.883,17.395,86.609
-0.157,1.627,1.141,13.977,22.217,81.726
-0.189,1.753,1.078,24.414,22.827,52.917
-0.225,1.731,0.895,20.630,18.494,26.062
-0.192,1.513,0.802,12.024,8.850,-6.104
-0.122,1.182,0.740,2.197,-19.775,-58.838
0.055,0.478,0.765,9.460,-30.762,-69.702
0.125,0.214,0.845,34.485,-34.668,-63.965
0.215,-0.108,0.969,38.391,-31.311,-53.772
0.245,-0.187,0.991,29.602,-24.109,-28.320
0.263,-0.171,1.009,27.161,-18.250,-13.733
0.231,-0.105,1.004,32.532,-4.211,13.184
0.133,0.027,1.058,36.255,1.099,21.484
0.171,-1.371,0.568,48.523,81.665,12.146
0.077,-1.418,0.514,3.540,-32.532,13.611
-0.092,-1.461,0.760,-12.268,-82.520,4.333
-0.083,-1.238,0.995,0.000,-74.890,2.869
-0.026,-1.061,1.006,17.395,-35.828,19.592
-0.008,-0.627,0.900,23.376,14.465,74.158
-0.089,-0.368,0.899,5.615,6.775,95.703
-0.148,-0.125,0.920,-33.447,-27.039,91.797
-0.120,0.161,0.894,-36.255,-34.546,79.346
-0.112,0.263,0.938,-11.169,-38.818,73.669
-0.089,0.455,1.185,2.319,-29.785,70.435
-0.046,0.500,1.219,3.052,-2.930,51.758
-0.023,0.561,1.160,-8.240,-6.042,45.166
-0.048,0.589,1.217,-13.977,-29.846,41.626
-0.042,0.633,1.411,2.136,-28.381,43.030
-0.022,0.665,1.477,32.654,-6.104,52.612
-0.032,0.851,1.562,27.161,2.197,56.091
-0.062,0.961,1.526,-31.189,8.240,42.114
-0.040,1.063,1.199,-67.261,10.620,28.259
-0.042,1.088,0.965,-101.746,3.784,6.714
-0.109,1.134,0.710,-95.886,-3.845,-1.587
-0.075,1.083,0.609,-43.640,7.568,-22.339
0.031,0.852,0.509,-17.578,10.376,-30.823
0.061,0.701,0.564,9.766,1.099,-46.204
0.120,0.353,0.732,16.602,-2.258,-51.880
0.146,0.192,0.813,26.978,-2.502,-49.072
0.183,-0.040,0.924,31.250,-0.488,-42.114
0.205,-0.118,0.980,37.720,2.075,-26.978
0.226,-0.182,1.114,36.072,5.981,-18.311
0.221,-0.162,1.146,28.809,25.269,2.502
0.096,-1.385,0.999,28.076,-33.264,48.096
0.063,-1.185,0.893,-23.499,-11.169,58.960
0.152,-0.949,0.491,-46.814,-21.179,56.519
0.122,-0.947,0.749,-61.584,-81.482,69.641
0.026,-0.752,0.990,-44.006,-80.994,89.722
-0.127,0.140,1.010,4.578,-5.981,124.390
-0.186,0.510,0.804,5.066,16.418,123.657
-0.217,0.622,0.672,-53.528,-46.692,86.914
-0.237,0.463,0.967,-64.270,-84.412,74.097
-0.250,0.519,1.198,11.963,-40.649,89.539
-0.397,1.041,1.216,51.392,8.362,103.394
-0.511,1.259,1.129,46.143,10.742,79.529
-0.592,1.176,1.466,25.330,-24.902,47.974
-0.564,1.001,1.693,16.479,-29.663,8.118
-0.418,0.791,1.610,17.456,-3.052,2.380
-0.314,0.727,1.413,-6.042,24.353,-11.047
-0.028,0.516,1.071,-22.278,24.658,-18.799
0.069,0.416,0.964,-44.434,15.198,-17.578
0.066,0.323,0.925,-45.105,11.963,-12.207
0.045,0.305,0.932,-27.161,28.809,-1.282
0.032,0.315,0.869,-19.836,38.025,2.258
0.036,0.328,0.825,-25.208,37.842,1.465
0.034,0.325,0.771,-27.954,34.180,-0.244
0.028,0.314,0.806,-12.207,32.654,1.160
-0.006,0.294,0.937,-0.793,34.058,2.319
-0.018,0.287,1.015,4.883,33.630,1.770
-0.017,0.275,1.073,-7.446,32.349,-6.653
0.023,0.210,1.052,-19.470,30.945,-12.512
0.058,0.164,1.018,-30.457,23.560,-19.958
0.129,0.086,1.004,-27.100,21.301,-19.958
0.393,-1.364,1.071,-8.118,-13.000,6.165
0.449,-1.664,0.973,23.193,4.822,23.743
0.308,-1.949,0.813,41.260,16.541,44.800
0.019,-1.772,0.643,57.800,41.260,90.454
-0.097,-1.605,0.551,51.331,43.213,101.990
-0.267,-1.289,0.448,-0.793,4.822,96.130
-0.334,-1.094,0.520,-33.569,-32.593,86.304
-0.285,-0.760,0.861,-71.960,-81.543,63.416
-0.151,-0.609,0.894,-72.266,-68.604,62.073
-0.139,-0.020,0.760,-60.852,-28.992,93.445
-0.230,0.333,0.751,-51.941,-24.292,98.816
-0.332,0.808,0.873,-12.268,-15.503,81.970
-0.312,0.922,0.932,5.005,-9.216,68.665
-0.207,1.016,1.137,10.132,-12.512,37.048
-0.178,1.042,1.304,11.841,-14.099,27.710
-0.169,1.180,1.614,28.015,-1.587,31.189
-0.174,1.294,1.633,28.503,11.597,31.128
-0.180,1.414,1.582,-2.991,33.691,1.465
-0.188,1.515,1.344,-25.330,39.490,-20.874
-0.181,1.471,1.125,-34.119,56.885,-49.805
-0.036,1.140,0.637,-23.193,55.481,-60.669
0.095,0.811,0.588,-0.671,21.362,-80.322
0.365,0.123,0.685,13.733,10.803,-77.148
0.420,-0.085,0.788,33.813,-2.869,-46.936
0.361,-0.221,1.041,33.997,-8.850,-29.785
0.285,-0.196,1.140,25.879,-10.620,-1.160
0.138,-0.066,1.255,21.118,-5.005,9.521
0.078,0.010,1.224,14.038,13.367,21.912
0.013,0.130,1.106,10.376,17.639,21.179
0.017,0.159,1.078,-0.854,17.212,8.423
0.120,-1.590,0.988,-36.316,-11.841,20.752
0.110,-1.613,0.953,-15.076,15.747,51.941
-0.003,-1.294,0.807,-9.827,24.536,69.763
-0.068,-0.978,0.724,-51.514,-0.427,69.641
-0.150,-0.405,0.710,-86.792,-26.855,53.284
-0.105,-0.220,0.767,-107.361,-39.124,43.518
-0.054,0.365,0.751,-78.125,-11.719,65.857
-0.130,0.802,0.592,10.742,45.898,120.361
-0.462,1.487,0.418,33.875,41.199,123.840
-0.500,1.533,0.526,18.555,-20.081,57.007
-0.344,1.375,0.997,15.198,-38.147,20.752
-0.297,1.360,1.203,74.097,0.244,0.244
-0.281,1.371,1.317,102.478,26.062,0.732
-0.282,1.352,1.331,65.613,6.470,-23.315
-0.173,1.129,1.352,26.733,-10.559,-47.241
-0.057,0.935,1.277,0.488,0.977,-71.716
0.163,0.607,1.038,7.202,11.658,-69.031
0.225,0.489,0.991,6.104,5.737,-62.012
0.360,0.260,0.928,-0.671,2.380,-58.105
0.381,0.183,0.890,-1.526,6.836,-36.377
0.306,0.127,0.874,6.287,9.399,-21.179
0.252,0.140,0.911,16.113,10.071,-7.080
0.175,0.195,1.025,23.376,6.775,8.728
0.142,0.212,1.029,17.090,5.249,10.071
0.121,0.221,1.018,2.014,2.380,8.179
0.105,0.235,1.016,0.305,3.906,9.094
0.092,0.236,1.020,8.728,13.611,13.733
0.083,0.227,1.055,11.963,17.395,13.306
0.099,0.217,1.079,0.793,18.616,3.723
0.133,0.153,1.042,-8.850,16.174,-0.854
0.301,-1.839,0.767,34.424,-24.658,27.832
0.206,-1.889,0.699,26.184,-2.380,61.646
-0.038,-1.710,0.512,14.343,-3.967,80.017
-0.312,-1.192,0.619,-28.137,-27.283,108.948
-0.399,-0.946,0.699,-41.199,-25.085,106.934
-0.318,-0.586,0.862,-27.283,-15.503,97.961
-0.290,-0.286,1.028,-10.376,-19.043,111.023
-0.328,0.428,1.074,22.095,15.991,127.136
-0.350,0.715,0.999,28.442,32.593,114.380
-0.332,0.865,1.005,8.728,10.010,59.631
-0.223,0.811,1.210,-7.935,-11.169,35.400
-0.146,0.761,1.297,-4.028,-12.268,21.851
0.053,0.806,1.361,14.648,3.479,34.119
0.064,0.919,1.396,34.973,22.705,67.505
-0.115,1.203,1.490,26.306,24.963,69.641
-0.238,1.332,1.505,-20.264,27.649,42.969
-0.379,1.509,1.356,-42.480,34.424,23.193
-0.368,1.519,1.188,-60.120,47.119,-14.832
-0.252,1.249,0.875,-65.918,39.856,-35.400
-0.138,0.954,0.753,-68.787,13.916,-74.219
0.165,0.302,0.693,-54.687,4.395,-83.191
0.304,0.050,0.756,-12.024,-0.549,-68.787
0.447,-0.193,0.903,3.540,1.160,-51.270
0.448,-0.201,0.968,17.273,6.409,-16.357
0.359,-0.078,1.050,18.494,10.132,-2.686
0.282,0.002,1.075,16.602,14.587,16.846
0.144,0.136,1.133,16.541,16.052,22.339
0.110,0.187,1.154,13.306,20.996,22.827
0.101,0.234,1.136,4.578,22.217,18.494
0.113,0.235,1.082,-19.958,17.029,6.470
0.160,-1.568,0.848,45.898,49.133,44.556
0.118,-1.568,0.800,13.733,30.823,79.163
0.075,-1.416,0.636,-0.122,26.672,87.769
0.042,-1.305,0.608,-5.310,22.705,95.703
-0.040,-1.105,0.699,-2.747,17.029,98.755
-0.086,-0.968,0.806,-4.395,2.869,105.713
-0.078,-0.524,0.871,-7.141,6.226,109.619
-0.018,-0.218,0.733,-19.470,4.761,112.061
0.014,0.334,0.668,-25.146,-17.090,109.436
-0.037,0.465,0.872,-18.921,-43.274,89.966
-0.120,0.490,1.241,-13.611,-33.020,78.064
-0.150,0.540,1.302,-3.540,-0.549,67.322
-0.165,0.820,1.297,6.287,12.146,65.613
-0.174,1.025,1.322,28.809,22.522,68.787
-0.293,1.439,1.459,29.907,20.325,69.702
-0.387,1.597,1.474,3.235,17.273,49.866
-0.485,1.694,1.297,-7.263,22.766,30.273
-0.477,1.602,1.161,1.282,31.067,-18.311
-0.236,1.073,0.969,6.409,24.414,-44.861
-0.031,0.708,0.936,4.517,11.108,-67.749
0.315,0.132,0.917,-4.578,-5.249,-80.566
0.405,-0.031,0.902,1.587,-2.136,-69.702
0.439,-0.160,0.949,30.151,7.141,-34.424
0.399,-0.140,0.993,41.931,11.230,-16.418
0.333,-0.079,1.038,45.776,15.320,10.559
0.194,0.070,1.115,39.612,14.832,17.883
0.131,0.129,1.148,27.039,12.329,21.545
0.076,0.177,1.236,21.545,12.512,19.104
0.076,0.162,1.243,2.441,17.639,10.498
0.119,0.108,1.154,-11.353,16.663,4.395
0.130,-1.513,1.296,31.067,9.155,4.395
0.170,-1.733,1.324,-11.841,7.751,18.311
0.029,-1.999,1.225,-36.255,16.113,34.119
-0.107,-2.076,1.147,-61.523,62.988,61.707
-0.326,-2.016,0.816,-66.223,91.553,78.369
-0.371,-1.750,0.600,-78.430,100.769,108.704
-0.326,-0.993,0.317,-93.384,77.209,112.915
-0.315,-0.663,0.297,-139.832,11.414,97.900
-0.216,-0.232,0.338,-148.132,-3.479,85.266
-0.118,-0.024,0.355,-104.370,0.488,90.088
-0.079,0.580,0.433,-67.383,8.240,104.004
-0.131,0.901,0.484,-24.597,7.629,116.089
-0.287,1.488,0.824,-24.841,-13.000,112.488
-0.298,1.671,1.048,-18.677,-32.410,87.524
-0.169,1.782,1.247,-5.859,-23.437,76.050
-0.138,1.821,1.235,12.085,-11.475,64.514
-0.225,1.902,1.163,21.057,-13.367,57.739
-0.291,1.876,1.146,59.265,-9.827,26.917
-0.275,1.507,1.056,76.965,-3.967,-0.244
-0.158,1.192,1.013,54.932,-19.653,-62.256
0.112,0.518,1.061,21.667,-33.936,-84.656
0.216,0.234,1.052,-3.967,-35.583,-93.079
0.330,-0.069,0.941,-0.244,-4.028,-69.458
0.341,-0.084,0.886,12.878,10.742,-47.791
0.312,-0.031,0.845,29.297,19.470,-7.385
0.210,0.155,0.856,33.752,18.555,6.226
0.156,0.245,0.907,35.400,19.592,22.217
0.035,0.374,0.999,34.607,22.888,26.367
0.000,0.405,1.031,28.381,26.062,25.146
0.013,0.414,1.091,20.447,26.306,20.874
0.249,-1.488,0.956,40.649,4.395,54.016
0.266,-1.614,0.945,20.386,-3.723,72.632
0.158,-1.568,0.923,8.240,2.991,83.801
0.109,-1.421,0.842,-10.437,24.231,95.520
0.116,-1.245,0.686,-27.588,11.902,97.473
0.116,-1.208,0.702,-67.078,-40.405,112.366
-0.026,-0.888,0.796,-71.167,-47.180,123.718
-0.066,-0.604,0.781,-59.814,-25.635,129.456
-0.058,0.049,0.704,-56.763,-22.278,127.441
-0.101,0.348,0.708,-61.035,-32.715,119.629
-0.232,0.726,0.672,-62.439,-36.133,111.450
-0.283,0.870,0.679,-42.908,-43.762,99.304
-0.464,1.426,0.944,-12.207,-34.668,104.431
-0.640,1.845,1.104,64.514,12.756,108.582
-1.000,2.566,1.449,78.979,24.902,86.914
-1.076,2.630,1.568,37.476,20.447,-14.282
-0.877,1.995,1.385,-1.038,14.771,-75.806
-0.617,1.434,1.137,-50.659,-1.160,-170.227
0.059,0.289,0.880,-50.110,-14.832,-190.369
0.357,-0.167,0.935,-26.550,-23.499,-170.959
0.702,-0.621,1.025,-14.709,-14.221,-139.587
0.719,-0.588,1.058,6.104,6.226,-64.087
0.525,-0.220,1.133,12.207,16.174,-31.921
0.370,0.002,1.131,7.751,29.236,5.981
0.108,0.329,1.093,0.427,28.564,11.108
0.048,0.406,1.088,-6.348,25.330,10.376
0.025,0.459,1.066,-15.503,21.179,3.357
0.045,0.457,1.043,-17.090,21.545,-0.488
0.119,0.406,1.009,-14.465,24.658,-5.554
0.151,0.375,0.997,-11.536,27.039,-5.676
0.468,-1.975,1.183,28.015,-51.453,1.953
0.474,-2.101,1.174,1.587,-12.268,52.063
0.004,-1.766,0.911,12.451,35.400,97.229
-0.299,-1.583,0.643,58.533,114.319,147.583
-0.441,-1.394,0.414,41.748,77.332,130.798
-0.380,-1.221,0.562,-69.580,-75.500,75.806
-0.150,-0.813,0.944,-103.210,-103.149,57.861
-0.009,-0.626,1.000,-72.205,-33.997,65.979
-0.015,0.018,0.842,-38.513,7.446,87.830
-0.195,0.512,0.776,31.372,44.434,114.502
-0.469,1.146,0.828,50.842,48.218,101.807
-0.451,1.187,0.908,9.155,16.785,51.514
-0.259,1.151,1.133,-25.391,-2.625,35.339
-0.165,1.164,1.207,-33.936,8.118,34.851
-0.109,1.262,1.235,-15.015,25.635,45.166
-0.177,1.389,1.235,2.808,38.086,55.359
-0.288,1.550,1.237,25.208,47.119,52.124
-0.444,1.759,1.222,30.945,48.401,35.339
-0.425,1.709,1.209,23.560,47.424,-14.221
-0.213,1.268,1.083,9.949,45.654,-38.330
-0.094,0.969,0.992,-29.358,22.522,-73.120
0.128,0.392,0.883,-44.312,6.836,-82.947
0.234,0.147,0.857,-34.424,-3.662,-80.566
0.403,-0.167,0.879,-16.663,-2.502,-69.336
0.459,-0.230,0.934,6.409,-1.221,-37.415
0.464,-0.209,1.040,8.850,1.587,-19.592
0.420,-0.146,1.050,12.573,10.986,12.634
0.298,0.012,1.047,17.761,14.282,25.146
0.236,0.090,1.062,30.945,17.883,40.283
0.133,0.213,1.114,34.363,19.165,42.053
0.283,-1.920,1.279,114.197,16.846,20.020
0.235,-2.114,1.181,105.652,99.854,70.374
-0.054,-2.177,0.495,63.843,94.055,86.731
-0.181,-2.083,0.273,-53.345,-40.405,101.257
-0.349,-1.697,0.572,-88.379,-92.773,112.427
-0.408,-1.434,0.730,-68.054,-40.161,136.658
-0.468,-0.526,0.554,-39.917,4.028,144.653
-0.474,0.037,0.512,-29.724,2.075,132.935
-0.364,0.798,0.651,-48.096,-17.822,101.013
-0.222,0.903,0.793,-60.059,-38.635,38.696
0.071,0.848,1.097,-33.325,-23.437,28.137
0.201,0.814,1.163,30.579,17.883,29.968
0.265,0.876,1.300,41.870,18.433,32.959
0.181,0.909,1.441,42.664,5.859,40.222
-0.105,1.016,1.764,39.917,8.972,45.105
-0.217,1.103,1.823,28.564,17.822,47.119
-0.300,1.292,1.509,-20.203,36.377,35.461
-0.295,1.331,1.219,-50.049,38.208,6.470
-0.111,1.209,0.669,-46.692,32.776,-10.498
-0.006,1.076,0.554,-29.175,-1.038,-37.109
0.136,0.660,0.694,-18.066,-17.090,-44.495
0.186,0.440,0.804,-1.160,-22.339,-45.654
0.260,0.129,0.965,27.832,-20.142,-34.241
0.289,0.042,0.995,30.151,-20.386,-25.879
0.283,0.018,1.024,21.057,-21.118,-7.996
0.248,0.043,1.042,14.465,-20.142,-0.061
0.210,0.061,1.062,5.859,-11.719,11.658
0.152,0.088,1.072,4.822,-4.822,16.724
0.135,0.111,1.064,4.456,5.493,23.621
0.138,0.158,1.069,3.784,8.118,25.391
0.072,-1.693,1.159,72.754,12.146,12.329
0.080,-1.854,1.218,89.355,63.354,42.175
-0.086,-1.839,1.061,85.083,98.694,62.805
-0.298,-1.489,0.505,31.555,95.215,82.336
-0.330,-1.260,0.417,-26.611,33.386,79.102
-0.289,-1.078,0.513,-140.320,-78.613,60.120
-0.172,-0.776,0.711,-153.503,-71.777,58.289
-0.128,-0.489,0.675,-103.760,-0.610,71.838
0.017,0.348,0.542,-78.613,11.230,77.271
0.061,0.740,0.558,-75.134,-20.264,65.430
0.163,1.133,0.795,-78.674,-34.607,45.532
0.250,1.135,0.976,-61.462,-25.452,11.780
0.313,1.008,1.266,-53.650,-13.367,11.780
0.262,0.987,1.328,-68.909,-6.958,25.208
0.103,1.151,1.288,-85.571,-8.057,25.940
0.038,1.292,1.208,-103.271,-2.625,16.541
-0.072,1.521,0.982,-94.971,6.592,13.000
-0.152,1.603,0.814,-58.594,15.869,-0.793
-0.206,1.471,0.693,-44.250,4.456,-23.132
-0.093,1.205,0.706,-28.198,-13.123,-70.923
0.179,0.576,0.702,-22.400,-15.869,-79.712
0.261,0.321,0.723,-6.958,-19.470,-67.261
0.315,0.017,0.851,4.883,-17.822,-53.467
0.311,-0.048,0.910,16.296,-13.916,-38.025
0.255,-0.026,0.964,27.283,-3.418,-7.446
0.214,0.044,0.952,29.236,3.662,6.165
0.112,0.236,0.958,34.241,15.076,26.306
0.073,0.323,0.989,37.476,19.775,31.433
0.048,0.403,1.021,37.354,30.090,31.921
0.034,0.499,1.045,29.663,32.043,26.855
0.132,-1.522,1.005,78.857,74.585,30.701
0.125,-1.648,0.999,119.263,75.562,53.467
0.042,-1.778,0.967,107.666,64.880,70.313
-0.048,-1.701,0.802,51.636,52.734,93.140
-0.025,-1.611,0.646,26.123,49.316,95.825
0.007,-1.461,0.469,-16.296,3.601,111.938
-0.034,-1.151,0.375,-34.058,-38.757,123.596
-0.083,-1.009,0.480,-47.241,-88.318,130.859
-0.028,-0.623,0.642,-50.415,-84.961,123.047
0.043,-0.312,0.601,-83.923,-94.238,106.079
-0.065,0.210,0.710,-91.736,-105.408,104.858
-0.208,0.391,0.939,-13.306,-65.002,128.296
-0.586,1.072,1.576,45.959,-31.921,154.297
-0.743,1.642,1.870,63.782,-2.258,157.898
-0.940,2.956,1.905,23.193,2.686,129.272
-1.210,3.608,1.643,17.090,40.405,46.936
-1.621,3.660,0.993,48.401,52.917,-34.668
-1.273,2.667,0.876,-32.166,-13.550,-266.052
-0.088,-0.003,0.725,-102.295,-51.208,-331.177
0.412,-0.942,0.646,-58.289,-42.725,-273.865
1.005,-1.524,0.811,11.536,-19.226,-198.486
1.057,-1.349,0.968,60.791,0.793,-65.369
0.704,-0.594,1.123,53.833,5.493,-16.968
0.420,-0.183,1.136,56.519,28.381,45.898
-0.088,0.428,1.158,57.007,37.231,56.641
-0.231,0.556,1.182,49.805,38.574,53.589
-0.280,0.576,1.202,33.203,33.813,27.832
-0.179,0.454,1.180,29.541,34.546,14.648
-0.083,0.354,1.141,17.456,38.208,-6.897
0.132,0.109,1.036,5.859,37.720,-15.015
0.118,-1.879,0.934,103.577,29.907,71.045
0.048,-1.922,0.777,114.990,73.181,113.281
-0.089,-1.854,0.462,99.365,64.148,117.859
-0.156,-1.552,0.495,51.086,2.319,128.418
-0.167,-1.365,0.558,35.583,-16.846,139.038
-0.164,-1.163,0.536,22.522,-22.949,156.067
-0.158,-0.550,0.414,21.790,-26.123,156.006
-0.127,-0.232,0.424,23.193,-43.945,134.094
-0.012,0.225,0.646,22.766,-56.763,118.591
0.033,0.347,0.797,33.875,-68.848,92.346
0.088,0.437,1.215,48.279,-66.833,88.623
0.012,0.539,1.540,82.764,-44.617,109.436
-0.394,1.009,2.115,91.003,-22.156,119.080
-0.620,1.294,2.236,51.392,13.611,97.412
-0.910,1.697,2.172,11.780,18.127,66.650
-0.963,1.787,2.053,-42.175,29.846,-9.766
-0.797,1.607,1.566,-59.204,39.429,-51.697
-0.566,1.260,1.238,-101.013,33.569,-130.127
0.040,0.318,0.747,-112.732,18.738,-152.771
0.297,-0.068,0.645,-108.032,4.761,-157.288
0.587,-0.455,0.610,-55.725,-2.014,-119.324
0.603,-0.464,0.667,-20.569,-0.061,-87.524
0.464,-0.288,0.900,29.785,-0.610,-30.457
0.360,-0.186,1.011,38.147,0.000,5.493
0.161,-0.015,1.186,33.264,2.563,17.517
0.096,0.053,1.236,25.513,7.629,25.513
0.055,0.113,1.241,3.052,15.991,28.809
0.042,0.170,1.186,-8.850,14.099,24.780
0.063,0.169,1.167,-23.560,7.690,15.198
0.125,0.149,1.167,-27.893,8.789,12.268
0.040,-1.476,1.171,36.804,43.274,50.293
0.020,-1.618,1.119,54.626,76.721,77.881
-0.042,-1.751,0.860,60.852,85.510,91.492
-0.076,-1.785,0.737,65.918,56.702,117.065
-0.169,-1.673,0.751,46.692,25.574,129.517
-0.213,-1.518,0.752,-27.222,-25.391,137.390
-0.170,-1.042,0.763,-50.049,-35.339,141.968
-0.167,-0.760,0.755,-19.714,-13.123,169.312
-0.270,-0.190,0.730,13.245,1.587,182.190
-0.317,0.092,0.718,23.376,-9.583,170.471
-0.279,0.616,0.889,-2.197,-33.264,149.841
-0.274,0.855,0.997,-15.686,-43.640,121.643
-0.310,1.162,1.025,7.080,-30.884,118.225
-0.376,1.282,1.045,38.452,-30.945,103.271
-0.513,1.484,1.298,38.025,-39.185,85.144
-0.574,1.585,1.481,35.828,-28.748,50.049
-0.744,1.820,1.596,38.208,-9.949,36.133
-0.805,1.854,1.489,23.621,13.611,-23.682
-0.581,1.365,1.154,-1.526,10.010,-71.045
-0.342,0.895,1.000,-46.204,-4.456,-142.212
0.169,-0.019,0.845,-45.105,-4.028,-147.949
0.352,-0.292,0.854,-12.451,12.817,-107.971
0.414,-0.395,0.959,0.793,19.470,-79.407
0.350,-0.304,1.054,6.836,22.949,-54.260
0.147,-0.021,1.152,7.263,32.898,-17.212
0.076,0.102,1.150,3.235,37.720,-7.507
0.034,0.189,1.119,-10.254,42.603,-2.136
0.031,0.268,1.037,-15.320,42.908,-3.174
0.056,0.274,1.034,-22.278,44.922,-6.409
0.094,0.229,1.022,-26.733,46.997,-7.385
0.120,-1.417,1.260,73.853,-51.147,-6.958
0.046,-1.486,1.233,86.182,18.677,38.086
-0.122,-1.487,0.866,87.280,53.406,60.425
-0.195,-1.414,0.598,38.696,30.212,88.562
-0.268,-1.274,0.415,-15.930,-32.227,90.576
-0.259,-1.275,0.502,-103.027,-110.718,87.280
-0.105,-1.349,0.479,-91.797,-84.595,94.910
-0.017,-1.198,0.429,-21.362,-9.644,135.437
-0.018,-0.553,0.428,-10.803,-8.484,146.851
-0.062,-0.258,0.508,-26.855,-46.143,127.747
0.032,0.025,0.708,-39.673,-61.279,108.521
0.121,0.076,0.881,-45.654,-67.383,93.628
0.074,0.344,1.348,-26.184,-47.668,105.347
-0.103,0.617,1.498,37.354,16.602,139.465
-0.470,1.078,1.563,54.871,35.461,138.733
-0.547,1.176,1.647,24.841,30.762,95.520
-0.573,1.219,1.790,3.784,34.241,74.341
-0.584,1.296,1.776,4.700,70.923,57.617
-0.647,1.598,1.526,6.592,84.900,49.988
-0.666,1.654,1.294,-20.020,76.416,1.343
-0.459,1.280,0.885,-33.997,58.899,-36.621
-0.211,0.906,0.774,-42.847,23.621,-96.313
0.278,0.207,0.666,-37.781,9.827,-102.905
0.404,-0.007,0.724,-9.705,-7.141,-81.604
0.496,-0.212,0.975,7.446,-5.310,-63.416
0.477,-0.218,1.073,25.146,7.935,-24.353
0.342,-0.101,1.159,24.780,14.221,-7.935
0.257,-0.006,1.165,21.973,20.996,4.150
0.117,0.192,1.184,10.925,34.241,13.794
0.078,0.266,1.189,1.099,38.635,12.146
0.279,-1.520,1.204,61.523,-75.256,18.188
0.290,-1.718,1.304,18.127,-46.814,61.157
0.072,-1.892,1.185,-7.446,-9.521,88.379
-0.083,-1.904,0.949,-22.705,53.406,128.418
-0.353,-1.671,0.642,-22.644,57.190,138.550
-0.438,-1.474,0.621,-40.527,22.156,132.690
-0.345,-1.152,0.652,-56.519,4.944,123.901
-0.219,-1.001,0.610,-84.534,-3.967,135.864
-0.099,-0.566,0.422,-90.576,-8.972,154.175
-0.163,-0.285,0.431,-67.932,-37.537,175.964
-0.358,0.260,0.761,-34.546,-38.940,175.781
-0.381,0.470,0.945,26.917,-1.404,172.119
-0.406,0.868,1.251,28.381,11.963,169.434
-0.450,0.990,1.419,1.526,11.475,149.780
-0.578,1.126,1.762,5.798,17.517,141.968
-0.623,1.270,1.824,54.016,67.261,137.268
-0.753,1.859,1.634,62.927,87.891,128.601
-0.893,2.181,1.458,23.376,94.055,73.669
-1.117,2.329,0.871,-4.517,86.426,25.146
-0.989,1.962,0.579,-27.039,64.880,-33.752
-0.648,1.353,0.484,-34.546,-7.751,-133.606
0.219,0.111,0.716,-14.465,-25.513,-148.987
0.544,-0.290,0.886,24.109,-26.367,-112.244
0.752,-0.558,1.175,24.902,-24.170,-79.773
0.693,-0.484,1.228,23.193,-0.793,-14.526
0.405,-0.133,1.152,26.917,16.541,12.024
0.235,0.059,1.075,22.949,34.363,37.109
-0.011,0.328,0.975,12.268,31.494,35.095
-0.073,0.377,0.959,-8.911,23.926,17.151
-0.075,0.351,0.953,-10.925,24.231,7.324
0.325,-1.577,1.079,-27.161,-77.515,3.906
0.344,-1.702,0.958,14.771,13.000,78.613
0.122,-1.648,0.626,48.584,62.561,114.990
-0.059,-1.373,0.517,71.411,77.698,146.851
-0.076,-1.174,0.553,44.128,41.626,140.625
-0.046,-0.998,0.586,-49.072,-43.579,97.961
0.100,-0.827,0.612,-82.581,-70.313,76.172
0.134,-0.758,0.658,-63.354,-70.801,77.148
0.065,-0.283,0.820,-20.203,-48.157,95.093
0.026,0.088,0.838,29.968,-25.452,112.671
-0.019,0.626,0.874,15.869,-45.044,101.929
0.000,0.660,0.998,-11.414,-82.336,70.679
-0.089,0.695,1.324,6.714,-68.604,71.411
-0.224,0.847,1.405,81.116,-10.681,97.534
-0.601,1.285,1.563,108.276,8.362,100.647
-0.770,1.401,1.704,108.154,18.311,64.697
-0.858,1.318,1.926,82.886,16.418,32.349
-0.765,1.152,1.880,15.137,13.184,-34.912
-0.395,0.720,1.590,-10.498,14.587,-59.998
-0.177,0.512,1.399,-27.100,19.409,-76.538
0.177,0.203,0.970,-43.640,21.912,-87.646
0.318,0.111,0.835,-43.152,13.672,-84.534
0.476,0.060,0.735,-27.527,-0.244,-61.157
0.449,0.083,0.747,-20.203,-4.700,-44.312
0.376,0.117,0.795,-7.935,-5.615,-16.846
0.224,0.143,0.838,2.441,1.221,-6.470
0.162,0.165,0.837,17.700,5.798,9.399
0.067,0.217,0.899,20.142,4.089,12.024
0.045,0.221,0.920,23.132,5.432,11.658
0.021,0.202,0.987,23.865,7.141,10.498
-0.261,1.024,1.318,3.906,-52.490,68.909
-0.238,1.017,1.395,-12.451,-50.720,44.800
-0.191,1.054,1.442,-15.747,-39.612,38.879
-0.199,1.111,1.392,-11.414,-7.629,37.903
-0.269,1.239,1.239,-10.193,2.808,35.095
-0.294,1.251,1.152,-12.695,17.273,13.794
-0.243,1.093,0.956,-16.418,18.860,-1.221
-0.203,0.949,0.924,-28.015,4.517,-31.250
-0.042,0.583,0.932,-27.771,2.441,-41.077
0.047,0.410,0.931,-9.705,13.489,-41.016
0.206,0.153,0.940,0.122,19.714,-36.377
0.261,0.049,0.962,3.845,20.691,-24.109
0.292,-0.092,1.025,1.099,20.508,-16.113
0.287,-0.113,1.034,-2.625,25.146,3.845
0.210,-0.041,1.099,-5.188,23.621,12.512
0.170,0.020,1.153,-12.390,19.043,20.264
0.105,0.147,1.234,-17.822,18.921,20.996
0.079,0.204,1.242,-31.677,20.874,18.127
0.040,0.308,1.185,-37.537,22.461,14.648
0.025,0.356,1.135,-41.748,22.644,10.132
0.007,0.422,1.080,-47.668,14.893,-1.404
0.012,0.450,1.078,-50.232,9.338,-7.324
0.024,0.468,1.077,-51.208,7.507,-18.433
0.056,0.463,1.040,-51.025,11.047,-22.278
0.067,0.457,1.035,-53.345,17.273,-23.071
0.097,0.437,1.055,-54.504,24.597,-20.203
0.104,0.418,1.042,-51.208,47.607,-8.484
0.078,0.403,0.913,-48.889,52.429,-2.502
0.072,0.417,0.853,-38.879,34.546,0.854
0.112,0.398,0.853,-32.715,21.057,-0.916
0.504,-1.176,1.326,52.002,-26.978,38.391
0.613,-1.447,1.382,76.660,-35.828,46.265
0.664,-1.931,1.342,88.684,-13.428,51.941
0.534,-2.052,1.095,87.463,43.701,88.928
0.121,-1.810,0.459,68.726,27.344,106.812
-0.060,-1.579,0.329,-5.493,-87.036,89.233
-0.142,-1.292,0.338,-39.307,-134.521,75.500
-0.169,-1.073,0.436,-32.471,-129.822,110.535
-0.384,-0.242,0.690,-6.104,-82.336,139.526
-0.510,0.232,0.674,7.263,-16.846,151.794
-0.655,0.747,0.619,-7.324,-25.696,128.601
-0.557,0.729,0.738,-17.761,-58.655,65.674
-0.220,0.639,1.128,1.770,-48.828,56.519
-0.191,0.778,1.236,66.406,4.639,85.205
-0.438,1.233,1.341,94.849,24.109,94.910
-0.495,1.319,1.416,86.243,15.503,61.829
-0.430,1.169,1.675,52.734,-1.831,36.499
-0.380,1.058,1.744,-3.723,-1.648,8.240
-0.337,0.915,1.569,-15.503,11.475,4.089
-0.312,0.851,1.417,-31.799,21.240,-9.338
-0.199,0.690,1.178,-44.067,20.386,-21.606
-0.087,0.586,1.057,-70.984,21.118,-42.847
0.029,0.415,0.936,-80.383,15.198,-46.997
0.041,0.342,0.913,-72.388,14.038,-42.480
0.048,0.270,0.827,-55.481,20.325,-34.119
0.039,0.270,0.812,-28.442,22.095,-23.315
0.039,0.248,0.891,-23.499,17.944,-23.621
0.038,0.227,0.962,-20.203,15.808,-22.583
0.031,0.203,1.095,-18.311,19.470,-19.409
0.044,0.205,1.132,-21.667,29.968,-11.414
-0.105,0.989,1.606,23.560,-40.588,115.784
-0.128,1.250,1.559,16.785,-12.817,110.718
-0.297,1.688,1.435,7.019,-8.301,99.670
-0.398,1.789,1.422,-10.742,-14.160,47.546
-0.422,1.603,1.437,-20.813,-15.930,10.681
-0.288,1.287,1.393,-68.848,-22.888,-55.420
0.112,0.528,1.144,-92.529,-27.100,-71.655
0.232,0.274,1.026,-97.656,-24.414,-64.758
0.312,0.045,0.799,-83.923,-20.874,-52.246
0.324,0.027,0.812,-47.485,-18.188,-25.269
0.253,0.112,0.911,-33.264,-9.399,-11.292
0.167,0.184,0.927,-22.034,7.507,8.362
0.020,0.306,0.963,-21.851,10.071,11.047
-0.012,0.346,0.989,-18.372,14.648,9.766
-0.049,0.413,1.019,-15.198,17.456,7.629
-0.043,0.430,1.038,-12.085,17.151,-2.625
0.026,0.406,1.089,-12.146,17.334,-7.935
0.057,0.386,1.089,-12.085,24.414,-12.390
0.093,0.376,1.067,-11.841,27.649,-13.184
0.090,0.391,1.057,-10.437,28.687,-15.991
0.050,0.440,1.020,-9.460,24.475,-19.897
0.051,0.449,1.024,-9.766,16.235,-26.489
0.092,0.420,1.101,-17.944,0.671,-40.039
0.113,0.405,1.121,-23.743,1.160,-42.847
0.103,0.403,1.097,-29.968,16.113,-40.039
0.075,0.404,1.008,-31.921,23.193,-38.452
0.045,0.417,0.894,-33.142,6.775,-45.654
0.061,0.408,0.939,-29.175,-9.094,-54.504
0.101,0.387,0.984,-19.043,-14.832,-67.688
0.173,0.331,0.955,-16.907,-8.972,-66.589
0.300,-1.133,1.449,46.448,-43.579,53.711
0.295,-1.311,1.485,22.095,-5.432,40.649
0.288,-1.673,1.347,14.648,16.541,40.527
0.178,-1.815,1.044,35.339,62.805,58.777
0.094,-1.777,0.887,56.213,85.632,68.604
-0.027,-1.511,0.637,84.961,111.328,81.482
-0.066,-1.272,0.503,80.811,104.431,86.243
-0.083,-1.002,0.370,14.954,25.146,88.562
0.004,-0.515,0.399,-39.856,-40.283,81.360
0.046,-0.301,0.559,-101.074,-115.356,59.570
0.037,0.189,0.786,-70.740,-93.384,57.739
-0.065,0.519,0.797,68.298,3.845,78.979
-0.245,1.081,0.826,112.671,27.161,76.965
-0.181,1.143,0.992,59.448,-36.682,41.260
-0.001,1.052,1.535,8.789,-68.359,33.936
0.011,1.034,1.603,16.785,-16.296,59.082
-0.100,1.251,1.497,61.218,24.963,77.454
-0.141,1.407,1.493,91.980,51.697,76.233
-0.109,1.531,1.415,57.983,44.495,57.861
-0.088,1.460,1.248,-18.066,29.236,17.639
-0.008,1.081,0.893,-25.635,22.400,0.610
0.082,0.833,0.825,-5.859,-2.747,-23.254
0.230,0.358,0.923,0.244,-20.447,-29.480
0.256,0.169,1.022,1.221,-36.804,-31.616
0.270,-0.064,1.159,3.601,-31.860,-26.428
0.261,-0.104,1.206,5.615,-15.747,-9.644
0.249,-0.100,1.197,2.930,-5.432,-1.160
0.215,-0.048,1.166,-1.343,2.441,6.714
0.163,0.076,1.121,-7.812,10.681,15.381
0.144,0.139,1.100,-8.728,12.207,16.113
0.081,-1.323,1.465,93.323,56.335,-23.804
0.063,-1.471,1.368,104.004,131.226,6.165
-0.096,-1.545,1.055,82.153,137.878,30.762
-0.186,-1.510,0.933,-6.042,88.135,61.035
-0.248,-1.384,0.796,-38.513,63.293,63.477
-0.226,-1.266,0.711,-38.025,59.326,70.801
-0.104,-0.904,0.416,-18.311,63.843,77.942
-0.025,-0.710,0.307,5.981,32.898,95.459
0.048,-0.366,0.376,3.845,4.883,104.187
0.093,-0.213,0.431,-5.615,-31.067,114.014
0.226,0.088,0.417,-9.583,-47.363,118.530
0.274,0.217,0.427,1.038,-84.290,122.925
0.311,0.325,0.761,22.217,-96.497,127.502
0.238,0.373,1.060,82.825,-85.266,151.428
-0.036,0.578,1.628,104.614,-69.885,162.720
-0.153,0.752,1.866,107.666,-58.228,167.114
-0.325,1.225,1.964,68.298,-31.555,152.466
-0.441,1.563,1.826,54.077,-11.047,139.465
-0.653,2.119,1.455,76.599,31.128,91.187
-0.657,2.074,1.323,86.182,38.147,45.959
-0.525,1.725,1.222,33.813,20.264,-77.148
-0.038,0.503,0.985,-15.015,1.648,-128.357
0.190,-0.089,0.909,-51.575,-23.743,-154.358
0.526,-0.741,0.914,-32.837,-24.048,-131.470
0.610,-0.777,0.971,4.456,-15.564,-63.660
0.554,-0.512,1.029,7.080,-10.437,-33.386
0.461,-0.311,0.996,4.700,2.197,11.902
0.226,0.075,0.947,7.568,5.371,25.818
0.136,0.195,0.978,15.869,8.362,33.691
0.055,0.259,1.054,17.700,10.986,31.311
0.188,-1.834,1.645,51.392,-98.450,2.197
0.074,-1.967,1.620,-63.293,-31.189,76.111
-0.216,-2.103,1.107,-79.224,23.560,101.013
-0.304,-2.033,0.803,-45.349,93.506,137.024
-0.433,-1.547,0.488,-39.917,86.487,143.433
-0.466,-1.198,0.481,-89.600,24.231,117.676
-0.351,-0.474,0.434,-116.272,2.686,99.792
-0.265,-0.161,0.331,-127.747,-9.521,84.290
-0.081,0.220,0.190,-114.075,-15.259,80.139
0.010,0.323,0.250,-47.546,-22.949,75.623
0.159,0.509,0.436,-6.958,-18.250,74.585
0.219,0.595,0.554,42.725,-24.231,76.599
0.197,0.778,0.904,54.932,-33.752,78.247
0.194,0.809,1.081,90.698,-39.063,90.393
0.065,0.890,1.598,119.934,-32.593,110.840
-0.099,1.036,1.865,177.979,8.057,161.133
-0.567,1.652,2.096,190.552,36.377,176.819
-0.782,2.029,2.028,164.551,76.965,136.536
-0.925,2.190,1.625,110.962,73.975,70.435
-0.817,1.793,1.376,34.729,51.331,-12.207
-0.240,0.543,1.006,-70.862,-0.854,-142.029
0.062,0.026,0.914,-71.533,-10.620,-161.560
0.471,-0.598,0.903,-35.645,-12.512,-137.451
0.594,-0.734,0.960,-24.231,-12.451,-113.464
0.659,-0.709,1.021,-8.972,0.061,-54.504
0.616,-0.577,0.977,-1.404,13.550,-21.362
0.506,-0.393,0.955,12.085,24.048,36.316
0.299,-0.034,0.999,23.682,29.602,54.504
0.221,0.127,1.047,31.067,40.405,67.749
0.103,0.364,1.155,14.587,37.476,59.814
-0.199,1.193,1.577,42.175,-11.353,73.120
-0.256,1.294,1.647,47.729,22.949,75.195
-0.432,1.497,1.612,47.852,40.833,67.688
-0.479,1.519,1.527,14.343,47.119,16.785
-0.346,1.229,1.322,-15.808,36.194,-18.494
-0.174,0.960,1.176,-58.411,17.761,-72.083
0.166,0.428,0.933,-65.918,7.080,-83.740
0.302,0.212,0.885,-62.561,-8.850,-83.191
0.528,-0.092,0.838,-51.392,-9.216,-72.815
0.592,-0.163,0.847,-24.658,-3.784,-37.476
0.533,-0.149,0.871,-14.526,-1.282,-18.066
0.468,-0.094,0.883,1.526,-0.916,11.902
0.349,0.036,0.955,9.521,0.793,23.865
0.270,0.103,0.992,20.752,10.742,41.992
0.139,0.207,1.033,22.949,12.756,43.579
0.117,0.243,1.073,21.851,10.864,40.161
0.123,0.258,1.125,10.681,10.010,29.114
0.132,0.234,1.100,3.296,13.184,24.292
0.148,0.207,1.063,-7.996,11.292,13.306
0.202,0.173,1.041,-11.292,7.874,8.728
0.218,0.164,1.041,-13.611,9.949,7.080
0.231,0.146,1.049,-12.634,12.878,8.057
0.238,0.147,1.055,-13.062,14.893,9.338
0.223,0.180,1.086,-17.029,15.137,9.644
0.220,0.198,1.081,-23.010,13.977,7.446
0.225,0.216,1.074,-22.278,7.507,5.310
0.223,0.217,1.103,-19.897,-0.244,2.136
0.215,0.246,1.120,-19.836,2.136,1.343
0.205,0.281,1.113,-24.109,4.211,-0.916
0.206,0.346,1.104,-28.748,4.150,-3.723
0.337,-1.469,1.029,36.987,-93.567,38.391
0.309,-1.613,0.962,49.866,-44.678,68.542
0.199,-1.750,0.734,50.415,-16.724,84.045
0.138,-1.689,0.627,18.555,5.066,102.417
0.065,-1.446,0.479,-7.568,-5.493,103.333
0.044,-1.327,0.461,-36.804,-40.710,104.492
-0.064,-0.870,0.460,-35.339,-45.776,104.858
-0.109,-0.569,0.421,-19.592,-41.809,104.919
-0.177,0.151,0.488,-6.348,-46.387,101.624
-0.226,0.476,0.750,17.212,-49.561,98.083
-0.441,0.809,1.269,20.935,-37.231,96.497
-0.513,0.837,1.399,13.062,-24.780,74.219
-0.404,0.777,1.590,11.658,-22.400,60.425
-0.309,0.753,1.621,29.419,6.409,49.683
-0.221,0.762,1.577,34.119,20.508,47.913
-0.219,0.757,1.521,12.329,27.710,37.231
-0.228,0.735,1.380,-3.723,29.053,32.593
-0.224,0.756,1.267,-15.808,38.452,31.860
-0.195,0.824,1.057,-10.986,40.466,31.555
-0.173,0.828,0.988,-3.357,36.682,25.330
-0.133,0.757,0.920,-2.747,34.180,18.127
-0.093,0.663,0.931,-3.113,26.062,-0.549
-0.035,0.427,1.046,-6.897,16.846,-9.888
-0.000,0.303,1.107,-10.681,8.179,-17.639
0.110,0.097,1.114,-5.310,8.484,-23.621
0.171,0.051,1.078,-1.831,13.184,-20.935
0.203,0.043,1.086,-8.179,13.184,-11.719
0.201,0.041,1.107,-11.597,16.113,-7.080
0.171,0.077,1.181,-14.343,28.259,2.991
0.165,0.110,1.212,-18.921,33.508,5.493
0.137,-1.455,1.188,45.471,-14.221,30.212
0.096,-1.540,1.178,18.799,-5.310,44.189
0.003,-1.533,0.986,16.663,20.325,57.983
-0.024,-1.325,0.526,33.691,57.678,90.027
-0.068,-1.184,0.447,25.513,32.715,98.145
-0.067,-0.921,0.644,-26.306,-47.119,84.106
0.009,-0.738,0.707,-45.166,-54.138,77.820
-0.039,-0.061,0.542,-51.758,-17.578,98.022
-0.161,0.267,0.471,-42.480,-10.193,108.337
-0.249,0.471,0.550,-12.939,-29.907,93.750
-0.285,0.612,0.997,-0.488,-30.212,82.092
-0.199,0.769,1.155,11.414,2.686,68.298
-0.112,0.835,1.183,17.334,14.832,61.951
-0.004,0.878,1.286,38.818,23.621,61.340
0.039,1.077,1.481,48.279,34.729,74.585
-0.109,1.316,1.465,53.284,68.054,99.915
-0.544,1.873,1.279,44.861,79.285,91.614
-0.702,2.013,1.143,11.719,70.862,28.992
-0.681,1.746,0.921,-0.183,53.528,-14.404
-0.463,1.355,0.901,-2.197,9.216,-89.416
0.105,0.410,1.064,-1.038,-10.132,-108.276
0.371,-0.008,1.156,5.310,-17.395,-98.145
0.715,-0.511,1.245,8.118,-9.888,-73.975
0.752,-0.570,1.247,9.155,10.681,-13.184
0.649,-0.424,1.146,12.695,24.475,16.785
0.506,-0.250,1.112,17.639,36.560,43.396
0.209,0.124,1.095,14.282,48.218,68.237
0.089,0.268,1.111,-3.479,41.809,64.575
0.018,0.357,1.138,-53.711,20.569,38.635
-0.018,0.417,1.142,-68.359,19.226,26.611
0.256,-1.961,1.033,71.838,13.428,51.819
0.231,-2.073,1.178,61.951,54.382,91.553
0.050,-1.989,0.596,51.331,90.576,110.718
-0.049,-1.833,0.165,2.258,32.227,125.244
-0.136,-1.370,0.376,-21.667,-38.269,118.652
-0.139,-1.125,0.761,-34.180,-64.819,103.394
-0.208,-0.488,1.091,-33.997,-32.532,107.117
-0.297,-0.040,1.094,-42.725,6.165,108.032
-0.233,0.707,1.091,-44.434,11.963,96.436
-0.125,0.919,1.035,-38.269,17.517,71.472
-0.022,1.134,0.952,-34.790,10.437,62.073
-0.054,1.182,1.009,-17.151,-0.244,46.814
-0.123,1.240,1.249,-3.845,4.272,37.659
-0.121,1.238,1.375,4.883,17.822,21.912
-0.137,1.205,1.459,-2.808,25.024,17.639
-0.156,1.180,1.403,-29.480,36.133,6.470
-0.178,1.107,1.131,-40.405,37.537,-3.174
-0.152,1.053,0.984,-42.480,29.602,-28.137
0.015,0.868,0.787,-36.438,22.278,-41.199
0.095,0.741,0.791,-30.640,-1.465,-62.744
0.247,0.445,0.881,-29.358,-7.935,-68.481
0.310,0.318,0.915,-24.475,-6.714,-67.871
0.358,0.151,0.916,-8.606,9.338,-51.270
0.349,0.097,0.893,-3.174,14.404,-41.931
0.340,0.051,0.895,3.601,14.404,-30.457
0.379,-0.013,0.902,6.714,16.357,-24.780
0.370,-0.011,0.900,11.292,18.860,-8.911
0.340,0.006,0.919,13.916,19.592,-2.075
0.329,0.009,0.944,21.973,26.123,9.155
0.311,0.014,0.989,25.024,30.151,13.245