aX,aY,aZ,gX,gY,gZ
-0.394,-0.742,2.291,205.811,7.751,-54.749
-0.085,-0.827,2.375,200.867,43.274,-68.604
0.409,-0.961,2.223,200.684,68.848,-55.359
0.477,-0.964,2.111,135.01,27.954,-26.428
0.315,-0.816,2.072,88.318,-16.968,-14.526
0.161,-0.699,2.051,46.753,-38.879,8.118
-0.043,-0.518,1.825,51.514,-28.748,11.414
-0.029,-0.477,1.797,64.514,-36.56,-2.258
0.115,-0.518,1.937,63.171,-40.71,-7.996
0.146,-0.528,1.968,45.776,-30.273,1.465
0.137,-0.505,1.877,32.41,-31.189,8.789
0.124,-0.492,1.845,4.639,-45.41,19.592
0.06,-0.412,1.673,-3.113,-42.908,22.766
0.031,-0.352,1.537,4.761,-27.405,24.414
-0.023,-0.261,1.441,8.606,-24.597,25.391
-0.055,-0.239,1.441,-3.845,-23.621,23.01
-0.088,-0.227,1.389,-13.184,-21.057,18.677
-0.088,-0.23,1.332,-22.339,-11.658,8.362
-0.054,-0.24,1.169,-19.287,-6.653,3.296
-0.025,-0.25,1.1,-2.441,5.31,-2.808
0.006,-0.264,1.005,4.761,10.925,-1.343
0.012,-0.269,0.977,5.188,7.568,2.747
0.011,-0.285,0.957,-0.61,-0.061,3.662
-0.001,-0.284,0.958,-10.925,-9.705,4.272
-0.021,-0.288,0.952,-11.536,-7.507,3.662
-0.021,-0.287,0.933,-2.075,3.723,0.488
0,-0.287,0.919,4.456,7.202,-1.77
0.013,-0.295,0.932,7.202,7.08,-5.188
0.023,-0.32,0.967,2.991,6.042,-5.31
0.019,-0.328,0.98,-6.165,7.385,-2.502
-0.025,-0.825,2.18,235.413,85.144,-41.565
0.324,-1.018,2.347,184.387,39.673,-74.28
0.717,-1.091,2.62,142.395,7.141,-65.796
0.689,-0.967,2.66,86.853,14.771,-15.442
0.446,-0.624,2.337,67.627,35.461,4.456
0.357,-0.494,2.073,43.701,36.377,8.85
0.336,-0.395,1.689,41.138,13.733,1.099
0.352,-0.414,1.69,43.213,-38.208,-10.193
0.337,-0.44,1.778,37.109,-45.227,-7.568
0.292,-0.409,1.731,7.69,-25.757,10.071
0.181,-0.301,1.496,-5.798,-15.93,15.015
0.156,-0.234,1.362,-6.653,-11.719,7.935
0.181,-0.165,1.187,3.174,-11.047,1.16
0.197,-0.185,1.149,20.081,-6.348,-5.432
0.206,-0.269,1.137,22.827,-6.348,-6.165
0.215,-0.318,1.157,14.893,-9.644,-4.517
0.207,-0.344,1.14,5.92,-7.202,-0.732
0.182,-0.32,1.063,-2.319,4.7,4.089
0.152,-0.279,0.895,1.77,7.69,3.418
0.146,-0.281,0.871,14.526,0.366,0.793
0.141,-0.315,0.935,18.921,-3.967,-0.061
0.143,-0.335,0.973,18.494,-3.662,1.221
0.144,-0.341,1.016,14.587,-2.38,3.479
0.131,-0.318,1.021,4.517,-0.854,6.47
0.094,-0.264,0.991,1.709,0.183,5.249
0.089,-0.257,0.98,2.869,1.953,2.625
0.092,-0.267,1.005,10.62,4.944,-1.526
0.094,-0.276,1.033,11.536,4.761,-2.747
0.1,-0.289,1.057,7.935,6.897,-3.601
0.115,-0.297,1.053,4.822,8.362,-2.625
0.424,-0.8,1.469,190.063,128.357,-11.292
0.46,-0.969,1.497,143.372,60.669,-39.978
0.61,-1.128,1.823,125.977,22.156,-48.706
0.64,-1.074,1.951,128.662,25.757,-21.729
0.552,-0.881,1.919,127.319,42.236,-4.639
0.519,-0.851,1.872,92.163,27.588,1.221
0.463,-0.82,1.839,72.449,8.118,-1.526
0.391,-0.751,1.804,49.744,-25.208,-5.249
0.198,-0.544,1.794,43.701,-41.565,-7.874
0.11,-0.448,1.804,38.33,-40.405,-12.39
0.045,-0.387,1.674,41.077,-18.677,-12.695
0.081,-0.433,1.579,41.992,1.587,-16.174
0.239,-0.557,1.527,33.569,-8.789,-18.494
0.278,-0.555,1.48,8.423,-17.7,-10.254
0.255,-0.459,1.232,5.188,-10.376,-2.747
0.23,-0.416,1.134,17.273,0.244,7.507
0.178,-0.386,1.084,22.583,-1.465,8.972
0.161,-0.397,1.096,18.982,-13.306,5.92
0.165,-0.439,1.122,12.39,-17.883,3.845
0.168,-0.434,1.115,5.31,-11.963,3.723
0.144,-0.369,1.021,6.47,-5.92,4.089
0.128,-0.34,0.971,13.977,-5.859,0.488
0.105,-0.331,0.981,20.02,-8.484,-3.418
0.112,-0.354,1.016,26.367,-5.798,-10.376
0.149,-0.407,1.063,22.156,-3.174,-10.742
0.159,-0.419,1.053,5.249,1.282,-5.859
0.15,-0.4,1.001,0.061,3.723,-3.54
0.145,-0.386,0.976,-0.061,7.507,-2.441
0.154,-0.384,0.941,6.592,13.123,-3.235
0.164,-0.398,0.948,8.118,11.23,-4.578
0.108,-1.173,2.365,171.814,54.749,-20.142
0.264,-1.37,2.543,154.053,128.174,13.916
0.417,-1.241,2.184,147.949,153.137,23.499
0.473,-1.104,2.016,101.44,62.683,-18.677
0.603,-0.999,2.132,73.73,6.287,-40.833
0.586,-0.927,2.21,40.222,4.761,-22.644
0.358,-0.642,1.962,27.161,35.767,0.122
0.266,-0.515,1.704,10.315,45.288,9.033
0.285,-0.475,1.47,13.672,20.386,-3.113
0.334,-0.529,1.516,19.165,-23.071,-18.25
0.316,-0.589,1.557,16.602,-26.428,-15.564
0.284,-0.586,1.528,6.348,-17.7,-6.836
0.259,-0.534,1.399,-1.709,-13,-1.343
0.249,-0.479,1.276,-17.273,-13.428,7.629
0.2,-0.376,1.006,-16.541,-20.447,8.911
0.159,-0.352,0.966,9.583,-32.349,5.249
0.087,-0.335,0.995,21.79,-31.677,1.343
0.079,-0.343,0.989,25.024,-27.405,-6.348
0.094,-0.38,0.989,18.677,-27.283,-7.263
0.094,-0.386,0.984,10.986,-16.663,-6.348
0.113,-0.393,0.921,16.357,-6.104,-7.446
0.144,-0.412,0.906,35.461,2.014,-11.841
0.209,-0.47,0.954,39.49,-2.563,-13.428
0.223,-0.499,1.005,32.471,-9.277,-9.216
0.194,-0.488,1.085,24.902,-6.409,-4.272
0.174,-0.462,1.085,10.01,2.319,-0.61
0.153,-0.419,1.02,6.165,2.747,-2.38
0.153,-0.41,1,5.615,0.061,-4.761
0.175,-0.431,1.015,11.414,-2.686,-7.69
0.176,-0.444,1.017,13.611,0,-7.446
-0.506,-0.924,1.605,167.48,46.692,1.587
-0.271,-1.213,1.99,184.448,29.297,-48.706
0.178,-1.408,2.509,159.363,29.602,-52.429
0.249,-1.325,2.483,89.6,72.266,-20.447
0.259,-1.062,2.227,64.636,99.67,-5.432
0.258,-0.927,2.01,37.964,108.093,-0.061
0.301,-0.772,1.666,33.081,75.5,-7.935
0.314,-0.778,1.62,42.786,-7.874,-25.696
0.278,-0.886,1.811,53.284,-26.672,-27.954
0.271,-0.913,1.925,49.011,-18.433,-18.066
0.241,-0.78,1.91,27.527,-9.399,-10.193
0.212,-0.66,1.769,-19.104,2.502,-0.305
0.158,-0.472,1.352,-22.034,1.16,0
0.148,-0.453,1.263,14.038,-12.146,-7.935
0.169,-0.47,1.224,30.396,-12.329,-10.62
0.18,-0.477,1.194,33.813,-14.465,-10.864
0.166,-0.475,1.148,23.132,-22.217,-8.972
0.126,-0.443,1.133,11.169,-27.771,-5.676
0.033,-0.363,1.063,-0.244,-16.907,0.671
0.011,-0.342,1.007,9.827,-0.427,-2.686
0.047,-0.352,0.956,17.029,0.977,-7.507
0.085,-0.377,0.948,19.958,0.366,-11.353
0.138,-0.433,0.908,11.719,-2.136,-10.925
0.144,-0.452,0.894,6.653,-3.906,-7.996
0.137,-0.463,0.896,5.554,-1.099,-1.221
0.095,-0.456,0.911,8.789,3.174,1.282
0.079,-0.446,0.91,15.686,7.446,0.732
0.086,-0.449,0.928,16.418,5.859,-1.709
0.098,-0.459,0.94,12.512,4.272,-4.7
0.107,-0.471,0.943,9.949,5.493,-4.272
0.375,-0.702,1.538,167.725,84.961,-27.649
0.407,-0.79,1.655,128.174,46.875,-39.795
0.483,-0.96,1.974,94.238,20.142,-43.579
0.409,-0.918,1.996,64.941,28.748,-18.311
0.153,-0.705,1.751,71.594,40.405,-9.705
0.128,-0.682,1.723,85.144,19.409,-29.297
0.306,-0.813,1.893,80.444,2.747,-41.748
0.392,-0.82,1.949,53.955,7.507,-36.194
0.4,-0.648,1.744,36.499,23.132,-21.484
0.352,-0.543,1.534,14.526,30.029,-1.831
0.307,-0.451,1.242,12.268,13.428,-2.075
0.299,-0.457,1.199,16.174,-30.457,-7.385
0.266,-0.485,1.249,20.081,-42.114,-6.958
0.236,-0.48,1.285,23.682,-36.743,1.038
0.168,-0.437,1.233,19.287,-28.564,4.517
0.138,-0.423,1.163,5.127,-25.818,4.089
0.115,-0.412,1.039,7.629,-27.344,2.197
0.112,-0.399,1.027,30.823,-26.733,-2.258
0.135,-0.431,1.104,38.696,-26.428,-5.005
0.161,-0.467,1.157,34.668,-18.372,-4.028
0.162,-0.472,1.161,25.696,-9.644,0.244
0.142,-0.45,1.114,8.728,2.686,3.845
0.127,-0.437,1.015,4.944,4.761,1.953
0.138,-0.446,0.989,5.371,0.549,-3.113
0.177,-0.477,1.012,6.287,-4.639,-4.333
0.193,-0.484,1.039,6.409,-5.737,-2.258
0.184,-0.455,1.03,6.165,0.366,0.244
0.162,-0.426,0.99,2.991,9.888,3.906
0.127,-0.405,0.942,0.793,7.935,3.296
0.123,-0.416,0.949,0.305,1.038,-1.038
-0.002,-0.888,1.952,214.294,25.696,-34.668
0.094,-1.112,2.102,166.26,39.429,-27.832
0.175,-1.366,2.156,159.912,61.646,-15.808
0.18,-1.344,2.13,151.062,82.581,-4.7
0.204,-1.153,2.136,122.498,54.81,-16.418
0.229,-1.08,2.153,53.223,-4.15,-41.687
0.237,-0.925,2.065,36.682,6.775,-32.471
0.169,-0.797,1.896,25.452,62.866,10.315
-0.018,-0.516,1.413,25.391,66.223,17.09
-0.043,-0.445,1.302,38.208,15.015,-7.69
0.019,-0.495,1.432,43.518,-7.507,-19.836
0.053,-0.566,1.514,42.175,-2.258,-17.761
0.096,-0.656,1.523,33.508,10.315,-7.446
0.092,-0.644,1.493,5.188,14.038,8.728
0.062,-0.564,1.37,-8.24,4.15,9.46
0.049,-0.498,1.308,-8.667,-11.414,1.77
0.065,-0.385,1.209,0.61,-4.272,-1.038
0.096,-0.374,1.147,12.512,20.325,-1.099
0.177,-0.424,1.046,10.254,20.874,-0.793
0.204,-0.472,1.026,-4.761,-2.808,-1.038
0.196,-0.536,1.023,-7.507,-12.634,0.549
0.164,-0.526,1.016,4.7,-10.925,4.517
0.091,-0.454,0.98,14.587,-3.784,5.92
0.07,-0.429,0.958,26.123,0.732,2.808
0.081,-0.45,0.989,24.841,-6.775,-0.977
0.092,-0.472,1.035,13.916,-16.418,-2.441
0.074,-0.459,1.049,9.644,-10.132,0.671
0.051,-0.429,1.018,9.644,6.592,5.981
0.033,-0.394,0.968,10.864,9.46,5.31
0.04,-0.4,0.957,10.498,2.686,-1.282
0.016,-0.896,1.869,270.63,51.086,17.7
0.107,-0.97,1.996,218.445,60.852,9.888
0.268,-1.372,2.396,190.979,60.852,5.92
0.818,-1.572,2.744,47.424,235.229,79.834
-0.046,-0.179,0.227,-41.443,411.56,154.48
-0.433,0.523,-0.369,91.187,-29.846,-31.616
0.469,-0.418,2.057,56.274,-258.118,-145.386
0.657,-1.018,2.54,39.49,-95.276,-58.35
0.27,-0.903,2.191,69.824,63.354,26.123
0.122,-0.582,2.007,63.232,110.657,52.002
0.304,-0.404,1.844,33.508,54.81,21.545
0.444,-0.463,1.798,5.371,-6.958,-10.01
0.476,-0.468,1.578,9.338,4.395,-5.493
0.394,-0.391,1.37,9.888,27.771,7.629
0.255,-0.299,1.023,1.831,14.893,6.958
0.226,-0.323,0.955,-9.888,-25.513,1.404
0.222,-0.415,0.915,-6.531,-35.645,2.014
0.241,-0.423,0.962,-4.639,-38.086,22.766
0.13,-0.298,0.962,-10.193,-29.297,34.912
0.058,-0.234,0.904,-5.249,-10.01,31.982
0.028,-0.162,0.823,2.258,-8.667,21.362
0.063,-0.154,0.801,18.677,-8.545,2.258
0.125,-0.172,0.754,26.794,-5.798,-2.38
0.139,-0.193,0.749,41.016,1.831,-7.446
0.135,-0.218,0.803,46.204,7.263,-9.216
0.122,-0.222,0.828,40.894,9.888,-12.573
0.14,-0.287,0.86,31.738,2.808,-14.709
0.172,-0.355,0.885,26.245,-8.972,-16.724
0.249,-0.457,0.967,35.156,-6.653,-16.174
0.27,-0.472,1.013,50.476,10.071,-9.216
0.568,-0.984,1.479,108.521,17.029,-58.167
0.527,-0.995,1.595,109.314,29.602,-25.269
0.405,-0.845,1.609,100.83,36.438,-12.451
0.344,-0.76,1.568,68.359,20.813,-6.348
0.249,-0.681,1.476,50.659,2.625,-9.338
0.208,-0.66,1.468,32.898,-26.367,-13.855
0.085,-0.588,1.529,30.09,-29.053,-11.841
0.023,-0.557,1.527,19.409,-20.935,-6.897
0.01,-0.541,1.433,14.099,-16.846,-7.385
0.052,-0.536,1.364,13.123,-7.69,-11.169
0.142,-0.531,1.248,15.869,-4.211,-10.986
0.167,-0.54,1.22,18.311,-8.545,-7.446
0.184,-0.579,1.226,18.005,-13.794,-5.798
0.179,-0.586,1.241,16.052,-14.465,0.916
0.137,-0.556,1.213,13.306,-8.484,5.31
0.119,-0.54,1.161,6.165,0.549,8.545
0.119,-0.525,1.062,5.249,-1.831,6.897
0.13,-0.513,1.042,10.681,-14.893,3.479
0.116,-0.471,1.047,13.611,-18.982,3.479
0.091,-0.451,1.056,16.113,-14.465,7.202
0.035,-0.413,1.048,15.991,-9.399,8.362
0.019,-0.404,1.041,15.808,-4.333,4.211
0.041,-0.429,1.038,15.503,-4.272,0.061
0.067,-0.457,1.036,14.16,-5.615,-5.92
0.109,-0.487,1.026,12.329,-5.676,-6.47
0.112,-0.48,1.007,6.287,-2.869,-4.333
0.085,-0.456,0.984,4.578,-1.099,-2.869
0.072,-0.452,0.987,4.578,6.104,-1.831
0.08,-0.46,0.961,5.371,10.132,-2.502
0.094,-0.469,0.939,5.249,11.78,-3.906
0.153,-1.06,1.677,107.483,17.639,-26.55
0.178,-1.116,1.799,98.694,18.982,-20.325
0.228,-0.99,1.76,92.651,33.997,-9.583
0.241,-0.89,1.656,79.163,39.368,1.404
0.187,-0.786,1.594,72.327,24.536,1.831
0.117,-0.746,1.655,56.152,-5.554,1.221
-0.01,-0.622,1.751,44.678,-9.827,1.16
-0.055,-0.558,1.706,19.409,-3.967,-2.808
-0.074,-0.487,1.499,14.099,-0.977,-8.789
-0.041,-0.492,1.424,17.883,-2.136,-20.752
0.067,-0.543,1.373,21.179,-5.066,-24.353
0.109,-0.558,1.363,23.682,-7.568,-23.376
0.12,-0.551,1.327,21.606,-5.615,-18.066
0.096,-0.537,1.302,10.864,1.648,-4.944
0.032,-0.511,1.21,4.333,3.54,-1.526
0.024,-0.511,1.16,-1.953,-1.587,-4.395
0.051,-0.525,1.105,0.244,-5.127,-7.202
0.063,-0.526,1.1,9.949,-1.648,-8.301
0.063,-0.505,1.064,12.451,2.93,-6.592
0.049,-0.482,1.042,9.705,5.31,-1.709
0.022,-0.451,1.028,5.31,3.54,-1.038
0.022,-0.447,1.016,-0.671,2.014,-5.371
0.044,-0.455,0.989,1.099,4.028,-8.606
0.061,-0.463,0.98,3.54,8.911,-10.986
0.088,-0.482,0.963,0.977,9.644,-10.803
0.097,-0.497,0.96,-5.737,11.047,-9.277
0.117,-0.54,0.934,-8.911,12.634,-6.104
0.113,-0.541,0.901,-10.681,15.747,3.723
0.097,-0.504,0.837,-9.033,15.564,6.348
0.095,-0.491,0.832,-6.348,12.451,7.507
0.418,-1.207,1.842,68.604,20.569,-65.247
0.428,-1.227,1.895,63.965,25.208,-32.898
0.338,-1.054,1.843,75.195,40.039,-14.954
0.263,-0.858,1.82,77.209,40.161,-0.61
0.246,-0.794,1.827,58.838,20.203,-1.892
0.233,-0.733,1.827,13.855,-18.494,-2.136
0.189,-0.605,1.733,0.183,-19.531,3.723
0.157,-0.551,1.621,0.366,3.296,15.93
0.129,-0.507,1.417,8.972,6.653,15.503
0.14,-0.503,1.385,22.461,-20.386,4.7
0.15,-0.498,1.423,23.621,-36.865,0.244
0.13,-0.484,1.418,19.226,-42.053,-1.77
0.09,-0.448,1.288,17.334,-35.095,-2.319
0.089,-0.444,1.227,17.578,-25.269,-4.15
0.116,-0.478,1.167,17.395,-25.024,-5.188
0.136,-0.5,1.153,13.367,-28.076,-7.141
0.155,-0.519,1.101,11.23,-26.794,-6.226
0.146,-0.517,1.066,11.597,-15.869,0.122
0.108,-0.502,0.996,12.512,-11.047,2.869
0.088,-0.494,0.976,11.78,-10.193,4.578
0.067,-0.486,0.979,5.92,-17.09,4.395
0.064,-0.479,0.978,3.662,-18.005,3.296
0.061,-0.465,0.966,1.038,-10.925,2.319
0.055,-0.442,0.929,-0.183,-5.798,2.014
0.056,-0.443,0.91,-1.587,-0.671,0.549
0.064,-0.456,0.887,-0.61,-1.648,-0.793
0.073,-0.462,0.892,3.784,-5.066,-2.808
0.08,-0.476,0.913,5.554,-4.456,-2.808
0.081,-0.483,0.92,7.874,0.122,-1.099
0.08,-0.499,0.931,7.935,2.075,0.854
0.377,-0.945,1.583,79.041,46.021,-47.913
0.452,-1.001,1.635,87.036,62.378,-31.067
0.442,-0.941,1.588,89.539,66.284,-19.226
0.369,-0.865,1.594,82.52,38.147,-7.263
0.194,-0.729,1.682,78.43,26.062,-7.324
0.142,-0.684,1.698,66.04,20.386,-11.414
0.148,-0.63,1.621,53.406,15.564,-12.878
0.139,-0.605,1.574,32.166,-4.333,-10.437
0.048,-0.538,1.55,32.837,-12.939,-8.972
0.002,-0.503,1.587,42.175,-16.479,-9.277
-0.035,-0.482,1.576,41.199,-9.46,-10.193
-0.015,-0.499,1.512,31.189,8.606,-11.963
0.071,-0.537,1.4,23.376,10.254,-11.475
0.099,-0.534,1.359,7.324,1.709,-6.409
0.121,-0.522,1.277,5.737,-1.221,-4.883
0.134,-0.534,1.259,12.146,-3.235,-3.479
0.141,-0.549,1.24,11.597,-4.7,-1.709
0.135,-0.535,1.211,3.174,-6.409,1.892
0.129,-0.49,1.119,2.258,-5.249,2.075
0.125,-0.477,1.083,12.207,1.526,0.122
0.121,-0.469,1.041,17.883,4.272,-1.221
0.125,-0.478,1.02,16.602,-2.502,-3.113
0.134,-0.501,1.005,12.268,-9.46,-2.93
0.136,-0.503,1.006,7.446,-11.475,0.793
0.122,-0.479,0.987,7.568,-7.019,3.479
0.11,-0.463,0.972,8.423,-3.052,5.31
0.093,-0.443,0.958,7.812,-3.723,4.7
0.089,-0.44,0.956,6.348,-5.493,3.174
0.086,-0.438,0.954,5.005,-4.333,1.282
0.08,-0.432,0.96,5.066,-2.686,0.977
0.534,-1.014,1.646,136.353,104.309,-27.71
0.712,-1.099,1.732,131.287,119.995,-23.926
0.845,-1,1.791,117.065,120.117,-23.987
0.864,-0.901,1.742,64.697,85.876,-25.33
0.747,-0.654,1.62,48.584,64.819,-23.071
0.633,-0.535,1.617,52.063,34.058,-22.644
0.445,-0.42,1.685,54.932,21.362,-26.367
0.389,-0.41,1.686,50.171,-3.723,-33.63
0.299,-0.388,1.611,51.514,-14.465,-36.316
0.279,-0.415,1.6,62.195,-31.433,-40.344
0.287,-0.534,1.68,59.326,-40.955,-39.612
0.279,-0.568,1.717,32.898,-47.791,-30.64
0.243,-0.564,1.691,19.836,-37.354,-23.437
0.228,-0.549,1.622,5.798,-0.549,-9.033
0.223,-0.513,1.392,2.563,9.949,-5.615
0.229,-0.502,1.295,-2.563,-4.211,-6.958
0.225,-0.484,1.207,-3.967,-14.526,-8.24
0.196,-0.472,1.133,-7.996,-16.785,-7.996
0.183,-0.465,1.082,-10.62,-12.939,-6.531
0.159,-0.435,0.982,-13.184,-8.118,-2.625
0.148,-0.412,0.944,-11.23,-10.559,-2.197
0.131,-0.379,0.893,-8.484,-10.864,-2.991
0.129,-0.375,0.876,-2.136,-6.714,-5.005
0.134,-0.389,0.869,-0.854,-5.493,-5.737
0.144,-0.404,0.877,-3.235,-5.981,-5.676
0.167,-0.443,0.894,-5.981,-7.202,-4.272
0.173,-0.453,0.903,-7.568,-8.85,-0.061
0.162,-0.432,0.913,-5.615,-5.92,1.77
0.148,-0.412,0.909,-2.075,3.113,2.075
0.13,-0.4,0.903,-2.197,4.883,0.793
0.117,-1.09,1.665,164.917,135.315,-40.283
0.387,-1.265,1.692,126.953,126.526,-57.739
0.734,-1.367,1.724,94.177,102.478,-55.969
0.758,-1.326,1.715,59.387,68.176,-34.058
0.619,-1.104,1.676,59.387,57.495,-23.804
0.538,-0.974,1.659,55.237,20.447,-20.935
0.427,-0.78,1.631,45.288,-4.883,-24.78
0.398,-0.716,1.621,30.64,-37.231,-26.306
0.327,-0.635,1.613,30.396,-38.513,-21.362
0.267,-0.606,1.618,29.907,-25.33,-7.751
0.159,-0.555,1.585,21.667,-19.958,-4.089
0.132,-0.536,1.524,-4.7,-23.804,-6.47
0.122,-0.513,1.345,-12.207,-28.076,-10.986
0.141,-0.526,1.262,-3.662,-24.963,-18.25
0.187,-0.554,1.156,6.714,-18.921,-18.921
0.192,-0.557,1.12,15.015,-15.686,-15.93
0.174,-0.565,1.085,10.742,-19.104,-13.367
0.155,-0.564,1.08,-1.709,-17.578,-5.371
0.114,-0.539,1.019,-5.31,-10.986,-2.197
0.107,-0.53,0.968,-5.31,-3.906,-2.441
0.122,-0.533,0.91,-3.052,-7.324,-5.066
0.138,-0.547,0.916,0,-12.756,-7.935
0.165,-0.569,0.956,4.883,-16.357,-9.094
0.165,-0.565,0.958,4.15,-12.756,-6.836
0.131,-0.53,0.937,-1.282,-2.319,-0.427
0.111,-0.509,0.919,-3.174,1.77,1.404
0.1,-0.492,0.902,-3.357,3.296,0.122
0.104,-0.489,0.901,-2.502,2.686,-1.038
0.113,-0.488,0.897,1.953,5.066,-2.441
0.128,-0.492,0.884,4.395,6.897,-2.258
-0.22,-0.34,2.009,127.625,30.029,-7.446
-0.11,-0.447,1.932,120.422,58.777,-26.917
0.158,-0.755,1.775,109.68,50.11,-38.147
0.282,-0.902,1.748,76.66,7.08,-42.053
0.329,-0.959,1.783,68.42,-4.761,-29.541
0.249,-0.888,1.785,71.472,5.127,0
0.058,-0.709,1.712,69.702,9.46,6.836
0,-0.643,1.659,52.856,-1.099,2.625
-0.03,-0.551,1.567,43.457,-9.338,-2.686
-0.039,-0.51,1.532,28.32,-17.578,-8.423
-0.081,-0.5,1.474,22.888,-15.32,-9.583
-0.083,-0.519,1.433,17.7,0.732,-9.705
-0.038,-0.506,1.311,15.503,9.399,-8.24
-0.009,-0.487,1.23,5.127,13.428,-6.836
0.026,-0.465,1.063,1.343,8.24,-6.958
0.029,-0.465,1.006,5.249,-0.854,-8.057
0.044,-0.477,0.959,11.597,-0.671,-7.751
0.052,-0.481,0.959,23.315,5.249,-3.845
0.057,-0.485,0.966,23.315,5.31,-1.892
0.057,-0.487,0.973,11.414,-2.686,0.183
0.042,-0.486,0.971,4.944,-7.019,0.061
0.037,-0.49,0.969,4.761,-8.606,-3.235
0.049,-0.523,0.988,10.681,-5.371,-5.127
0.055,-0.527,0.998,18.311,-0.671,-5.615
0.053,-0.506,1.004,23.987,3.967,-4.395
0.053,-0.499,1.008,18.066,-0.122,-3.845
0.042,-0.489,1.016,3.601,-6.653,-0.854
0.021,-0.477,1,1.404,-3.54,1.587
-0.012,-0.457,0.981,8.057,1.709,3.174
-0.017,-0.463,1.002,13.123,1.038,1.648
0.294,-0.885,1.64,163.757,60.791,-38.025
0.37,-0.974,1.768,160.278,48.95,-44.861
0.416,-1.031,1.97,139.587,36.621,-43.03
0.394,-0.99,2.001,96.863,31.006,-28.87
0.307,-0.839,1.856,81.665,34.729,-23.193
0.266,-0.78,1.745,63.721,21.606,-26.855
0.249,-0.748,1.673,55.664,5.371,-31.006
0.248,-0.743,1.679,38.391,-11.719,-26.733
0.218,-0.675,1.641,33.386,-6.531,-19.714
0.201,-0.663,1.599,21.729,5.31,-9.521
0.201,-0.699,1.502,11.658,1.221,-8.362
0.213,-0.713,1.453,-1.892,-14.832,-8.972
0.222,-0.704,1.37,-0.305,-14.099,-8.24
0.213,-0.682,1.305,8.118,4.578,-4.639
0.21,-0.637,1.166,8.972,8.057,-4.089
0.214,-0.623,1.116,1.953,-6.775,-5.737
0.193,-0.613,1.064,-0.61,-14.954,-5.676
0.168,-0.606,1.05,-0.061,-19.043,-2.38
0.125,-0.57,1.002,1.526,-16.663,-0.488
0.118,-0.552,0.971,5.127,-9.094,0.61
0.129,-0.541,0.922,5.127,-7.446,0.427
0.132,-0.542,0.914,-1.343,-10.559,0.427
0.117,-0.531,0.905,-5.127,-12.573,0.488
0.096,-0.515,0.899,-6.531,-12.451,0.61
0.083,-0.5,0.865,-2.319,-5.493,-0.549
0.097,-0.507,0.848,1.16,-1.709,-1.099
0.124,-0.526,0.835,3.418,-1.221,-1.282
0.126,-0.538,0.848,2.258,-3.723,-1.16
0.119,-0.545,0.87,0.793,-3.54,0.549
0.095,-0.542,0.886,1.465,0.183,1.282
0.581,-0.785,1.524,152.832,69.092,-41.321
0.564,-0.814,1.612,133.057,72.571,-32.898
0.582,-0.84,1.725,116.455,64.026,-33.997
0.595,-0.782,1.734,87.219,36.682,-35.889
0.585,-0.756,1.714,88.806,17.212,-29.175
0.562,-0.694,1.72,89.233,5.31,-25.818
0.532,-0.668,1.743,68.481,-20.508,-15.686
0.386,-0.621,1.815,55.969,-25.513,-8.179
0.283,-0.568,1.797,35.4,-20.569,1.404
0.176,-0.472,1.628,31.86,-19.653,-1.526
0.201,-0.468,1.561,34.607,-22.522,-8.423
0.29,-0.52,1.501,43.884,-24.963,-16.418
0.308,-0.547,1.458,42.053,-20.813,-14.343
0.306,-0.576,1.393,20.264,-18.677,-6.958
0.262,-0.613,1.24,6.165,-23.254,-3.113
0.231,-0.596,1.165,-2.747,-28.32,-0.244
0.191,-0.546,1.067,1.953,-27.283,-1.343
0.174,-0.533,1.043,11.78,-21.667,-2.869
0.14,-0.525,1.028,13.55,-18.921,-2.197
0.131,-0.517,1.035,10.742,-11.902,-1.038
0.139,-0.491,0.983,7.996,-6.348,-1.099
0.15,-0.478,0.933,7.69,0.977,-2.258
0.18,-0.466,0.877,9.216,0.305,-3.113
0.19,-0.474,0.887,7.019,-6.409,-2.808
0.19,-0.497,0.956,3.296,-7.69,-1.282
0.177,-0.494,0.969,-0.549,2.258,2.075
0.154,-0.458,0.905,0.793,8.667,2.38
0.156,-0.443,0.869,6.226,7.751,-1.099
0.181,-0.445,0.864,8.667,3.052,-3.357
0.188,-0.456,0.883,10.742,-1.892,-4.883
0.421,-0.823,1.649,167.603,59.814,-26.306
0.494,-0.753,1.696,148.743,71.655,-18.738
0.436,-0.724,1.715,129.395,63.232,-21.973
0.383,-0.727,1.741,105.347,40.955,-36.316
0.349,-0.646,1.808,103.21,41.26,-40.344
0.388,-0.628,1.781,89.783,49.194,-45.044
0.498,-0.661,1.729,71.106,43.03,-44.189
0.5,-0.651,1.723,21.057,22.644,-25.696
0.353,-0.483,1.604,2.136,15.686,-11.597
0.241,-0.361,1.45,5.249,-4.395,0.488
0.143,-0.309,1.348,22.583,-23.437,-7.019
0.155,-0.393,1.419,40.588,-51.819,-22.278
0.189,-0.553,1.538,38.757,-51.88,-22.034
0.193,-0.582,1.537,20.203,-24.719,-9.277
0.154,-0.553,1.377,5.066,-7.568,-1.77
0.138,-0.526,1.227,-9.888,5.066,3.174
0.151,-0.493,0.986,-2.563,-3.723,0.427
0.172,-0.512,0.976,23.071,-27.527,-7.69
0.195,-0.577,1.041,29.114,-31.555,-8.362
0.184,-0.592,1.055,24.048,-28.625,-3.54
0.133,-0.549,1.051,18.433,-24.048,-0.61
0.115,-0.522,1.036,17.7,-5.432,1.831
0.126,-0.511,1.007,24.658,2.991,-0.244
0.148,-0.516,1.014,33.325,5.92,-3.784
0.187,-0.521,1.054,40.283,-1.892,-10.62
0.193,-0.526,1.071,36.804,-6.226,-12.024
0.174,-0.519,1.072,23.193,-6.226,-8.301
0.162,-0.505,1.055,17.578,-3.113,-5.432
0.16,-0.496,1.035,18.127,3.235,-3.662
0.179,-0.505,1.027,21.729,5.432,-4.272
0.42,-1.15,1.622,179.993,76.233,-26.245
0.51,-1.269,1.746,134.094,59.143,-34.18
0.585,-1.203,1.854,114.624,57.068,-27.771
0.539,-1.051,1.807,84.839,59.448,-14.099
0.454,-0.781,1.645,67.505,49.683,-14.832
0.42,-0.721,1.617,30.396,9.521,-20.813
0.343,-0.677,1.656,21.118,-3.052,-20.508
0.306,-0.662,1.677,21.606,0.732,-10.193
0.229,-0.591,1.616,22.827,5.066,-5.859
0.211,-0.56,1.563,20.874,-8.667,-13.184
0.234,-0.578,1.573,18.005,-20.996,-18.433
0.24,-0.591,1.584,10.925,-27.283,-19.348
0.225,-0.61,1.511,8.057,-20.996,-16.602
0.224,-0.621,1.449,-4.395,-11.536,-8.301
0.229,-0.613,1.307,-13.428,-9.766,-4.15
0.226,-0.584,1.224,-24.109,-7.629,1.099
0.193,-0.509,1.046,-24.231,-8.789,0.854
0.177,-0.487,0.97,-14.099,-22.217,-5.127
0.142,-0.484,0.941,-5.371,-29.236,-6.958
0.125,-0.493,0.968,7.568,-27.527,-6.897
0.129,-0.503,1.007,8.85,-19.287,-5.432
0.137,-0.493,0.993,2.197,0.549,0.061
0.144,-0.474,0.918,-2.136,6.287,1.465
0.14,-0.467,0.876,-1.343,5.127,0.305
0.126,-0.464,0.864,4.517,0.305,-2.319
0.127,-0.475,0.901,12.817,-4.517,-7.324
0.137,-0.5,0.946,13.245,-0.183,-7.507
0.14,-0.503,0.94,12.329,13.306,-5.31
0.144,-0.509,0.904,9.155,15.93,-3.967
0.14,-0.512,0.882,3.54,12.939,-1.587
0.345,-1.043,1.616,196.228,76.904,-15.686
0.373,-1.17,1.72,175.598,98.389,-10.437
0.514,-1.309,1.815,144.958,88.013,-17.944
0.565,-1.316,1.862,75.867,39.185,-32.654
0.539,-1.248,1.892,53.772,21.484,-23.01
0.41,-1.001,1.884,48.889,25.513,-12.634
0.343,-0.894,1.812,24.414,26.367,-1.282
0.254,-0.803,1.597,10.803,15.747,-2.808
0.238,-0.779,1.528,10.315,-28.137,-15.747
0.249,-0.747,1.652,18.738,-47.913,-21.912
0.239,-0.735,1.714,21.667,-54.321,-22.339
0.177,-0.685,1.632,9.155,-33.63,-11.536
0.147,-0.65,1.537,-0.549,-19.714,-6.104
0.125,-0.608,1.331,-20.935,-2.93,-1.77
0.129,-0.599,1.216,-29.602,-0.671,-2.197
0.147,-0.564,1.034,-28.137,-4.761,-6.531
0.166,-0.557,0.988,-18.005,-6.165,-10.01
0.203,-0.573,0.935,-2.686,-6.409,-13.306
0.209,-0.585,0.917,-0.977,-6.042,-12.329
0.175,-0.577,0.893,-4.639,-3.601,-6.47
0.147,-0.561,0.886,-7.08,-1.831,-3.845
0.124,-0.539,0.859,-7.874,4.211,-4.272
0.137,-0.536,0.835,-5.249,5.798,-6.897
0.193,-0.551,0.829,2.197,2.747,-12.146
0.209,-0.558,0.837,2.502,0.977,-11.902
0.204,-0.555,0.838,-3.54,-0.854,-6.592
0.169,-0.53,0.832,-4.822,0.122,-4.028
0.157,-0.521,0.839,-1.953,5.981,-1.404
0.154,-0.514,0.849,0.122,9.399,-1.404
0.171,-0.531,0.851,3.723,12.695,-2.747
0.183,-0.935,1.767,161.499,38.879,-10.193
0.173,-0.996,1.849,152.588,49.194,-13.855
0.205,-1.083,1.874,117.493,35.217,-18.921
0.302,-1.116,1.786,43.152,7.08,-14.465
0.299,-1.073,1.715,28.625,10.864,-0.061
0.154,-0.887,1.646,49.5,38.025,24.475
0.087,-0.802,1.648,59.937,39.368,22.888
0.053,-0.759,1.641,40.222,-3.174,-1.526
0.086,-0.768,1.61,27.1,-24.353,-11.658
0.109,-0.759,1.598,20.691,-30.151,-11.292
0.087,-0.668,1.518,20.752,-24.719,-6.348
0.057,-0.617,1.475,19.714,-15.564,-0.488
0.015,-0.549,1.366,19.531,-10.01,-1.343
0.02,-0.541,1.303,15.808,-3.174,-7.507
0.077,-0.57,1.192,11.414,-3.357,-10.559
0.111,-0.596,1.146,1.77,-9.949,-11.78
0.141,-0.631,1.09,-1.526,-13.916,-9.399
0.133,-0.632,1.084,-3.967,-12.39,-1.282
0.078,-0.591,1.047,-4.333,-6.409,2.014
0.057,-0.565,1.007,-4.456,4.578,1.526
0.062,-0.544,0.931,-4.7,6.409,-1.221
0.075,-0.543,0.901,-7.874,0.854,-5.859
0.093,-0.556,0.874,-10.559,-5.554,-6.958
0.098,-0.568,0.889,-16.357,-15.869,-5.31
0.087,-0.575,0.912,-16.174,-12.756,-2.563
0.078,-0.562,0.897,-7.019,4.15,1.221
0.072,-0.541,0.861,-2.686,9.277,0.732
0.069,-0.538,0.851,-4.272,4.089,-1.892
0.061,-0.539,0.858,-7.08,-2.075,-3.54
0.055,-0.539,0.873,-6.531,-4.883,-5.798
0.235,-1.389,1.756,187.195,19.775,-63.599
0.378,-1.636,2.011,168.457,22.949,-66.284
0.62,-1.742,2.238,149.719,21.851,-60.242
0.68,-1.648,2.209,123.23,26.855,-36.621
0.586,-1.289,2.1,113.953,27.527,-23.437
0.452,-1.112,2.046,87.036,5.798,-11.169
0.231,-0.885,2.001,71.716,-12.207,-11.963
0.163,-0.809,1.985,47.913,-29.541,-13.428
0.07,-0.701,1.854,42.297,-27.222,-13.672
0.044,-0.676,1.758,31.616,-27.527,-15.137
0.029,-0.685,1.634,23.01,-34.607,-14.587
0.027,-0.695,1.605,6.653,-41.931,-8.057
0.004,-0.672,1.511,2.747,-35.217,-3.113
-0.018,-0.644,1.422,-0.977,-13.611,3.662
-0.042,-0.618,1.233,-5.249,-9.46,3.296
-0.035,-0.626,1.17,-19.836,-15.137,-1.587
0.004,-0.644,1.062,-24.658,-15.564,-3.235
0.025,-0.641,0.999,-24.78,-7.263,-3.479
0.049,-0.621,0.876,-22.583,-3.479,-2.747
0.05,-0.605,0.829,-19.958,-2.258,-1.404
0.041,-0.579,0.776,-18.921,-3.296,-1.953
0.037,-0.568,0.768,-14.16,-2.991,-3.357
0.022,-0.558,0.788,-11.353,-2.38,-3.906
0.021,-0.561,0.813,-4.639,4.089,-5.066
0.043,-0.562,0.828,-2.808,10.376,-4.211
0.057,-0.557,0.804,-6.348,12.878,-2.014
0.079,-0.554,0.787,-7.629,9.155,-2.197
0.086,-0.562,0.803,-4.333,6.165,-2.014
0.075,-0.567,0.855,-1.465,7.507,-0.671
0.06,-0.554,0.872,0.244,11.719,2.197
0.329,-1.262,1.868,218.079,55.603,-40.283
0.496,-1.405,1.98,181.641,37.415,-43.396
0.487,-1.372,1.996,106.079,-16.235,-36.194
0.284,-1.152,2.017,89.661,-20.142,-22.217
0.146,-0.989,1.983,90.027,5.92,1.831
-0.007,-0.714,1.834,90.515,13.184,2.502
-0.009,-0.655,1.757,84.106,9.277,-2.808
-0.001,-0.69,1.623,54.443,-18.005,-15.808
-0.01,-0.744,1.598,40.405,-31.372,-18.25
-0.007,-0.773,1.617,27.527,-38.94,-14.709
0,-0.733,1.581,23.743,-32.349,-9.644
-0.007,-0.624,1.428,16.113,-17.578,-0.183
-0.01,-0.592,1.357,10.62,-8.85,2.502
-0.019,-0.572,1.222,7.263,-5.127,2.502
-0.021,-0.574,1.149,2.563,-3.113,1.709
0.007,-0.589,1.049,-7.385,-11.719,-3.662
0.02,-0.583,1.033,-7.751,-18.25,-6.836
0.039,-0.571,1.025,3.967,-15.32,-9.888
0.046,-0.572,1.014,13.489,1.709,-7.935
0.056,-0.586,0.963,12.451,5.676,-7.507
0.058,-0.592,0.937,8.911,4.395,-7.996
0.065,-0.602,0.922,3.906,-2.625,-8.85
0.072,-0.599,0.921,3.357,-3.052,-7.446
0.061,-0.57,0.891,2.38,0.916,-1.709
0.048,-0.557,0.878,2.808,2.869,0.061
0.027,-0.548,0.879,2.014,1.77,0.061
0.019,-0.552,0.892,0.183,-0.061,-0.61
0.013,-0.554,0.906,-1.709,1.587,-0.916
0.002,-0.55,0.916,-1.709,5.493,-0.488
0.002,-0.563,0.912,-3.906,11.292,0.732
0.274,-1.193,1.87,153.076,47.363,-46.143
0.341,-1.227,1.949,122.681,59.448,-35.95
0.436,-1.117,1.879,96.802,49.561,-31.494
0.422,-1.018,1.836,75.989,39.307,-15.381
0.276,-0.8,1.807,78.735,38.391,-10.437
0.228,-0.743,1.785,77.209,22.888,-18.86
0.233,-0.777,1.767,70.435,5.31,-26.672
0.267,-0.827,1.803,53.345,-27.893,-33.63
0.269,-0.818,1.849,46.021,-32.043,-29.358
0.229,-0.757,1.813,36.438,-11.719,-14.099
0.164,-0.659,1.605,33.264,2.197,-9.888
0.163,-0.646,1.464,23.56,5.432,-10.437
0.187,-0.652,1.281,17.7,-6.836,-13.123
0.183,-0.651,1.247,10.315,-26.917,-14.954
0.15,-0.638,1.2,8.057,-25.818,-12.451
0.127,-0.623,1.147,0.61,-13,-3.662
0.082,-0.588,1.005,-2.869,-9.705,-1.465
0.072,-0.578,0.958,-2.93,-9.521,-2.197
0.079,-0.572,0.898,-0.244,-8.85,-3.418
0.091,-0.577,0.888,2.625,-10.01,-4.639
0.093,-0.577,0.891,0.549,-10.437,-4.211
0.08,-0.565,0.88,-2.808,-3.418,-2.197
0.059,-0.545,0.846,-2.625,1.343,-1.526
0.061,-0.543,0.83,-4.761,1.648,-3.052
0.085,-0.561,0.83,-5.493,-0.061,-3.967
0.088,-0.565,0.829,-2.93,2.563,-2.686
0.08,-0.561,0.829,0.244,4.883,-2.136
0.081,-0.561,0.841,3.54,7.751,-0.916
0.083,-0.55,0.852,2.991,8.057,0.244
0.08,-0.544,0.856,1.526,8.606,2.319
-0.125,-1.082,1.707,165.039,49.438,-20.264
0.031,-1.163,1.835,171.02,79.773,-31.677
0.347,-1.229,1.939,157.349,78.064,-37.048
0.415,-1.225,1.935,108.521,46.143,-36.804
0.36,-1.107,1.884,95.032,32.593,-31.738
0.29,-1,1.878,93.384,19.714,-21.423
0.19,-0.801,1.833,90.088,13.306,-19.836
0.169,-0.725,1.79,76.294,-5.981,-20.203
0.158,-0.73,1.804,67.932,-13.977,-17.212
0.138,-0.742,1.814,44.006,-24.475,-7.751
0.096,-0.72,1.745,33.752,-29.541,-5.371
0.081,-0.684,1.689,26.733,-36.499,-4.822
0.074,-0.629,1.56,26.733,-34.058,-4.028
0.073,-0.616,1.479,26.672,-17.09,-0.916
0.064,-0.623,1.307,23.865,-12.085,-0.488
0.061,-0.632,1.242,9.705,-16.846,-1.099
0.059,-0.63,1.146,2.075,-18.616,-0.183
0.058,-0.618,1.104,-5.737,-11.047,3.174
0.061,-0.588,1.005,-6.958,-7.202,3.784
0.055,-0.57,0.967,-6.287,-5.554,2.991
0.036,-0.54,0.943,-4.822,-3.479,1.77
0.036,-0.535,0.929,-4.639,5.066,-0.305
0.062,-0.54,0.886,-5.188,7.996,-0.671
0.074,-0.543,0.871,-7.935,7.874,0.122
0.083,-0.543,0.846,-10.254,5.127,0.854
0.078,-0.547,0.841,-9.705,-1.892,2.197
0.055,-0.55,0.868,-5.798,-2.808,2.625
0.041,-0.551,0.884,0.977,3.54,3.235
0.013,-0.54,0.891,0.61,6.348,3.662
0.007,-0.535,0.892,-5.127,5.92,2.258
-0.04,-0.941,1.822,146.79,56.885,-36.377
0.11,-1.109,1.907,148.071,74.829,-61.646
0.559,-1.198,1.923,138.245,72.083,-70.129
0.719,-1.152,1.839,125.427,70.679,-55.237
0.71,-0.991,1.69,120.361,61.157,-41.382
0.604,-0.914,1.702,100.891,12.024,-25.757
0.372,-0.746,1.852,93.506,-8.24,-23.926
0.292,-0.672,1.903,87.83,-13.489,-27.588
0.221,-0.627,1.832,84.351,-6.042,-30.579
0.227,-0.645,1.73,71.106,-0.977,-35.522
0.277,-0.691,1.564,61.462,-8.423,-35.583
0.295,-0.722,1.53,38.269,-26.306,-28.381
0.266,-0.73,1.477,28.687,-24.963,-19.348
0.227,-0.698,1.413,21.484,-3.906,-3.662
0.17,-0.647,1.268,20.935,3.296,-1.16
0.156,-0.63,1.222,13.428,0.122,-2.502
0.145,-0.593,1.15,6.47,-3.906,-3.479
0.137,-0.568,1.099,-2.869,-2.625,-3.723
0.138,-0.542,0.975,-4.761,-0.671,-3.601
0.141,-0.543,0.932,-5.188,-1.648,-4.15
0.133,-0.546,0.88,-3.113,-1.77,-5.066
0.13,-0.542,0.865,1.099,-3.418,-7.996
0.137,-0.536,0.854,0.366,-6.104,-8.789
0.135,-0.539,0.855,-3.601,-7.568,-6.836
0.121,-0.55,0.848,-3.906,-4.883,-5.188
0.117,-0.555,0.84,1.099,3.967,-3.052
0.125,-0.569,0.817,4.944,7.568,-2.502
0.135,-0.578,0.814,5.859,4.761,-1.526
0.13,-0.573,0.842,2.502,0.366,-0.671
0.11,-0.554,0.854,-4.333,-2.075,1.099
0.283,-1.397,1.651,214.416,64.392,-51.636
0.45,-1.508,1.978,168.762,38.757,-60.73
0.573,-1.468,2.182,125.305,37.598,-49.255
0.521,-1.401,2.098,68.604,62.805,-21.79
0.461,-1.276,1.788,53.284,66.589,-12.146
0.481,-1.207,1.747,57.19,6.287,-17.883
0.473,-1.097,2.019,62.561,-34.851,-28.259
0.42,-1.037,2.131,56.885,-54.993,-28.198
0.278,-0.87,2.07,49.744,-36.438,-18.005
0.223,-0.8,1.944,17.7,-9.766,-3.662
0.148,-0.686,1.642,-2.075,-11.597,-1.038
0.106,-0.618,1.492,-5.981,-19.226,-1.77
0.034,-0.506,1.343,8.057,-20.02,-4.272
0.02,-0.493,1.303,22.888,-18.555,-10.681
0.041,-0.539,1.201,19.409,-18.433,-11.78
0.056,-0.564,1.145,6.348,-15.991,-9.155
0.073,-0.599,1.014,1.343,-13.367,-6.775
0.072,-0.604,0.955,-4.883,-14.404,-1.77
0.047,-0.594,0.889,-3.357,-16.357,-1.038
0.036,-0.589,0.892,6.47,-12.573,-1.16
0.006,-0.55,0.89,7.202,-7.324,-0.244
-0.006,-0.527,0.863,0.61,0.671,-1.892
0.017,-0.528,0.809,-0.854,2.686,-4.211
0.041,-0.542,0.794,0.427,3.54,-7.507
0.066,-0.565,0.78,1.221,2.563,-7.751
0.064,-0.569,0.781,5.188,1.648,-6.531
0.052,-0.56,0.804,8.911,2.808,-6.226
0.054,-0.562,0.821,13.184,6.714,-5.798
0.072,-0.582,0.84,11.719,8.118,-4.395
0.074,-0.587,0.839,6.348,8.179,-0.977
0.004,-1.213,1.721,198.547,17.944,-39.734
0.104,-1.356,1.85,190.918,38.33,-38.391
0.274,-1.532,1.951,158.081,20.203,-40.527
0.247,-1.469,2.074,109.619,-3.601,-26.611
0.173,-1.337,2.111,94.299,29.053,2.869
0.006,-0.986,1.966,81.787,44.556,9.949
-0.027,-0.863,1.796,66.772,48.889,7.812
-0.032,-0.793,1.638,42.969,23.071,-11.047
0.014,-0.767,1.459,36.499,7.751,-19.897
0.041,-0.758,1.406,34.363,0,-22.034
0.052,-0.702,1.298,36.438,3.296,-18.372
0.042,-0.671,1.246,35.583,3.235,-13.794
0.031,-0.645,1.164,32.043,-0.916,-13.55
0.03,-0.649,1.135,26.367,-8.118,-12.451
0.006,-0.635,1.072,24.597,-11.292,-12.085
-0.014,-0.615,1.048,20.874,-20.386,-15.32
-0.029,-0.589,1.001,18.005,-22.217,-17.7
-0.027,-0.596,0.964,12.817,-18.433,-20.203
-0.02,-0.639,0.905,12.268,-13.489,-19.714
-0.013,-0.662,0.883,11.23,-5.371,-18.066
0.009,-0.695,0.869,8.667,-5.31,-16.968
0.009,-0.69,0.857,4.639,-8.85,-14.771
0.007,-0.664,0.857,5.676,-9.583,-14.343
0.003,-0.657,0.866,10.559,-2.38,-10.986
-0.007,-0.655,0.87,11.963,3.235,-9.338
-0.004,-0.664,0.872,8.911,7.996,-8.362
0.014,-0.693,0.885,4.944,6.958,-8.179
0.021,-0.703,0.886,-1.648,3.479,-6.165
0.017,-0.695,0.87,-2.319,1.404,-5.005
0.011,-0.686,0.872,3.784,0.61,-3.967
0.18,-1.218,1.667,173.34,26.489,-27.405
0.209,-1.266,1.789,139.099,13.55,-25.269
0.13,-1.304,2.005,116.699,5.31,-20.02
0.083,-1.249,2.069,99.182,20.874,-6.348
0.028,-0.98,1.997,97.656,37.903,-1.77
0.023,-0.846,1.885,72.144,39.185,-8.484
0.064,-0.762,1.716,53.772,23.193,-15.442
0.083,-0.783,1.709,36.255,8.057,-17.944
0.092,-0.755,1.701,33.386,15.808,-12.512
0.069,-0.69,1.62,18.188,30.518,-2.869
0.021,-0.59,1.354,10.315,26.917,-3.235
0.007,-0.576,1.236,4.822,-0.427,-11.23
-0.014,-0.592,1.163,7.019,-17.395,-15.625
-0.019,-0.608,1.189,18.066,-27.832,-18.677
-0.015,-0.62,1.202,23.193,-19.287,-16.296
-0.019,-0.609,1.159,22.949,2.869,-8.667
-0.018,-0.589,1.021,17.029,6.653,-7.385
-0.008,-0.594,0.955,3.357,-2.136,-11.353
0.022,-0.623,0.875,0.488,-8.911,-13.733
0.037,-0.632,0.875,4.822,-12.268,-12.939
0.041,-0.628,0.889,7.324,-8.301,-9.949
0.033,-0.617,0.883,6.104,-1.709,-4.883
0.017,-0.596,0.865,3.967,-0.916,-4.211
0.014,-0.591,0.857,-1.282,-4.211,-5.981
0.022,-0.605,0.868,-2.197,-6.042,-7.202
0.026,-0.614,0.875,3.906,-0.916,-6.47
0.026,-0.609,0.883,8.423,3.235,-4.944
0.023,-0.602,0.885,10.376,7.446,-1.587
0.008,-0.589,0.885,7.385,6.897,0.122
-0.003,-0.581,0.89,-2.93,2.38,2.441
0.12,-1.706,1.847,168.152,-17.7,-75.5
0.312,-1.885,2.175,168.701,28.87,-51.27
0.505,-1.732,2.298,168.518,64.819,-35.156
0.539,-1.535,2.144,121.399,71.106,-26.917
0.585,-1.241,1.899,86.853,40.527,-30.273
0.532,-1.145,1.867,50.842,-9.705,-22.705
0.322,-0.957,1.829,52.734,-14.099,-13.977
0.226,-0.875,1.801,56.641,-13.977,-5.127
0.124,-0.812,1.73,45.715,-25.513,-8.057
0.111,-0.819,1.683,21.667,-56.885,-13.977
0.093,-0.812,1.615,22.522,-60.913,-12.268
0.074,-0.784,1.592,34.363,-46.875,-2.075
0.019,-0.705,1.503,34.973,-39.001,2.258
-0.005,-0.669,1.445,22.156,-31.86,6.287
-0.049,-0.607,1.328,12.756,-29.541,7.385
-0.068,-0.582,1.262,5.981,-25.024,8.057
-0.09,-0.545,1.13,7.202,-8.85,6.653
-0.086,-0.534,1.082,10.376,-1.953,4.272
-0.073,-0.532,1.041,7.751,2.502,-2.563
-0.038,-0.551,0.966,4.7,3.174,-5.554
-0.016,-0.569,0.94,1.343,7.446,-8.301
0.024,-0.612,0.9,-1.709,9.766,-7.629
0.036,-0.621,0.868,-7.263,12.939,-4.028
0.053,-0.62,0.809,-5.737,13.245,-3.296
0.062,-0.621,0.796,2.808,14.709,-2.686
0.074,-0.613,0.795,5.615,15.503,-2.136
0.078,-0.608,0.797,5.615,16.907,-2.258
0.078,-0.611,0.817,4.7,18.555,-1.953
0.08,-0.618,0.828,0.854,23.499,-0.183
0.091,-0.625,0.811,-2.38,24.536,0.732
