aX,aY,aZ,gX,gY,gZ
0.194,-1.905,1.065,219.604,-66.589,67.749
0.239,-2.261,1.411,344.665,-93.262,194.824
0.186,-2.904,2.673,375.183,-93.933,283.569
-0.02,-2.909,3.447,267.761,-9.338,424.072
-0.697,-1.853,3.991,92.407,69.031,430.42
-1.088,-1.112,3.505,-425.72,158.875,325.745
-1.395,0.047,1.772,-655.212,153.748,255.859
-1.485,0.531,1.03,-817.505,211.243,192.383
-2.013,1.989,-1.647,-757.873,303.101,175.171
-1.909,2.734,-3.395,-419.128,152.405,-97.107
-0.56,1.908,-3.643,-216.797,-93.384,-313.354
0.046,0.991,-3.162,52.185,-307.983,-468.384
-0.201,0.032,-3.181,154.785,-296.875,-414.429
-0.825,-0.649,-3.066,426.758,-303.101,-311.462
-1.129,-2.848,-1.865,566.65,-317.383,-306.824
-0.607,-3.747,-0.951,612.183,-354.065,-304.077
0.423,-4,0.712,504.639,-366.943,-239.807
0.364,-3.979,1.196,351.746,-252.014,34.058
-0.558,-2.939,1.426,362.671,-154.236,156.006
-0.904,-2.288,1.667,372.925,-84.961,202.942
-1,-1.599,2.524,307.19,-85.876,154.541
-0.852,-1.567,2.59,77.393,-52.124,75.989
-0.644,-1.58,2.112,-2.563,-19.165,75.745
-0.621,-1.475,1.814,-43.518,49.438,96.558
-0.531,-1.103,1.332,-51.575,59.692,88.196
-0.431,-0.967,1.17,-87.28,42.236,38.635
-0.204,-0.841,0.887,-102.6,34.729,17.151
-0.124,-0.794,0.74,-112.671,34.241,0.916
0.016,-0.742,0.496,-110.474,33.569,1.77
0.067,-0.736,0.439,-95.032,22.827,12.207
-0.219,-2.095,1.236,220.642,-118.774,110.352
-0.351,-2.37,1.566,262.878,-114.929,216.797
-0.575,-2.724,2.258,258.057,-98.511,260.193
-0.63,-2.718,2.524,137.207,-44.25,298.157
-0.718,-2.229,2.511,22.827,-13.062,293.335
-0.791,-1.808,2.297,-213.135,64.514,258.423
-0.881,-0.833,1.866,-321.106,115.356,234.07
-0.734,-0.426,1.616,-544.434,207.886,180.054
-0.279,0.071,0.846,-638.184,249.451,174.255
-0.234,0.333,0.162,-739.136,329.529,211.426
-0.994,1.492,-2.433,-747.253,328.308,216.492
-1.421,2.464,-3.752,-550.537,69.519,-8.728
-1.278,2.605,-3.709,-322.449,-127.625,-222.717
-0.976,1.724,-2.998,111.45,-251.099,-431.519
-1.279,0.079,-2.681,243.347,-225.647,-414.917
-1.597,-0.842,-2.695,444.458,-268.066,-444.519
-1.058,-3.404,-1.949,523.56,-324.097,-489.807
-0.154,-4,-0.97,519.897,-436.157,-400.635
0.633,-4,1.127,454.956,-412.353,-207.642
0.281,-3.833,1.367,396.606,-171.936,168.091
-0.522,-2.536,1.307,389.404,-108.276,218.75
-0.703,-2.038,1.546,296.997,-133.606,149.292
-0.8,-1.82,2.011,228.455,-138.306,116.455
-0.765,-1.768,2.078,129.517,-88.562,105.835
-0.636,-1.507,1.94,102.356,-51.819,112.854
-0.586,-1.355,1.724,76.538,-20.569,114.014
-0.506,-1.142,1.258,17.273,3.662,82.458
-0.428,-1.068,1.064,-8.362,8.911,60.669
-0.256,-0.923,0.809,-45.654,13.123,32.532
-0.189,-0.873,0.735,-54.321,12.329,23.132
-0.074,-2.185,0.958,135.193,-93.323,106.689
-0.087,-2.434,1.276,135.498,-122.07,186.401
-0.172,-2.775,2.088,104.126,-126.831,229.187
-0.277,-2.671,2.318,-21.79,-62.256,313.965
-0.671,-1.834,2.255,-101.318,-10.864,339.294
-0.786,-0.825,2.051,-275.879,91.797,297.241
-0.684,-0.44,2.004,-378.784,132.385,249.878
-0.573,-0.134,1.888,-593.994,213.257,199.341
-0.722,0.328,0.819,-682.739,262.329,209.961
-1.152,0.694,-0.346,-765.808,318.054,199.89
-1.869,2.349,-3.513,-710.998,251.77,85.266
-1.806,2.767,-4,-363.525,-152.222,-346.252
-1.27,1.026,-3.408,-153.87,-297.607,-511.78
-1.114,-0.289,-3.242,186.218,-300.781,-560.852
-1.244,-2.449,-3.03,323.975,-297.974,-538.208
-1.162,-3.341,-2.656,530.334,-383.972,-524.17
-0.106,-4,-1.138,565.674,-446.472,-471.924
0.334,-4,-0.025,503.967,-498.352,-143.799
-0.107,-3.8,1.6,476.013,-407.959,66.101
-0.572,-3.339,1.64,432.495,-165.588,262.451
-1.124,-2.551,1.555,369.263,-143.555,240.295
-1.156,-2.537,1.857,240.479,-166.504,162.842
-0.938,-2.524,2.364,195.068,-134.338,160.4
-0.817,-2.313,2.33,86.914,-35.583,188.721
-0.737,-1.652,1.887,28.381,2.38,188.354
-0.706,-1.35,1.561,-64.087,45.349,134.705
-0.493,-0.99,0.959,-96.558,49.622,100.83
-0.356,-0.875,0.726,-134.521,45.715,63.354
-0.083,-0.702,0.361,-135.315,44.25,52.795
0.033,-0.661,0.257,-114.929,36.194,35.4
-0.102,-2.204,0.986,135.559,-142.212,60.669
-0.211,-2.475,1.246,145.691,-140.686,163.025
-0.328,-3.05,2.01,129.333,-141.479,212.158
-0.526,-2.941,2.56,35.156,-83.74,317.139
-0.671,-2.557,2.559,-47.302,-19.47,354.553
-0.964,-1.384,2.432,-269.287,137.817,346.985
-0.888,-0.956,2.169,-432.922,208.313,295.41
-0.598,-0.656,1.007,-797.058,256.958,205.261
-0.714,-0.392,0.19,-891.968,263.733,207.581
-1.161,0.238,-0.995,-842.407,290.71,197.632
-1.793,2.453,-3.854,-723.999,210.693,84.167
-1.511,2.723,-4,-408.997,-190.552,-354.919
-0.626,1.139,-3.605,-267.761,-306.519,-498.291
-0.647,0.243,-3.724,54.565,-322.449,-483.276
-1.47,-1.698,-3.375,266.296,-338.501,-440.124
-1.565,-2.713,-2.707,619.08,-402.527,-427.612
-0.712,-4,-1.099,678.833,-444.031,-405.701
-0.059,-4,0.881,595.032,-515.198,-188.599
-0.294,-3.996,1.61,535.95,-471.68,-17.761
-1.001,-3.651,2.143,498.413,-267.822,224.609
-1.294,-3.19,2.347,480.713,-203.43,270.02
-1.48,-2.232,2.897,355.713,-125.427,239.075
-1.286,-2.013,2.931,227.783,-83.923,183.472
-0.914,-1.878,2.393,-27.344,-1.953,109.497
-0.843,-1.715,1.864,-81.238,50.354,106.201
-0.731,-1.105,0.902,-95.581,110.352,116.455
-0.588,-0.855,0.61,-100.22,104.248,104.309
-0.384,-0.717,0.427,-118.469,63.049,47.424
-0.017,-0.633,0.214,-122.681,45.105,24.231
0.099,-0.636,0.143,-113.098,21.423,6.104
-0.058,-2.142,0.844,114.014,-102.112,121.399
-0.095,-2.262,1.038,110.046,-108.948,176.27
-0.254,-2.325,1.438,95.581,-101.807,205.261
-0.373,-2.223,1.632,19.104,-66.101,249.512
-0.627,-1.819,2.039,-47.363,-40.649,257.141
-0.711,-1.524,2.242,-233.643,35.583,231.262
-0.702,-0.926,2.388,-349.365,88.135,206.665
-0.668,-0.673,2.245,-559.448,208.13,191.711
-0.891,-0.07,1.433,-622.986,271.057,211.426
-1.173,0.348,0.555,-702.637,345.032,209.229
-1.444,1.637,-2.131,-721.008,292.114,128.662
-1.309,2.181,-3.102,-586.548,-18.005,-206.665
-0.824,1.572,-3.368,-425.598,-158.752,-372.925
-0.663,0.537,-3.358,-36.316,-243.469,-490.478
-0.796,-1.638,-3.15,161.987,-250.671,-474.304
-0.875,-2.598,-2.792,465.82,-321.289,-443.115
-0.246,-3.996,-1.539,540.894,-384.949,-418.945
0.233,-4,-0.639,534.302,-488.342,-210.205
0.114,-3.808,1.148,502.93,-460.999,-34.302
-0.341,-3.338,1.578,489.99,-236.816,223.694
-0.989,-2.482,1.866,460.632,-166.138,249.39
-1.038,-2.318,2.156,287.781,-151.672,179.932
-0.706,-2.315,2.637,177.734,-130.066,149.597
-0.625,-2.249,2.627,12.451,-3.845,181.702
-0.7,-1.727,2.017,-34.912,69.153,211.182
-0.71,-1.376,1.59,-106.873,130.066,198.73
-0.542,-0.831,0.911,-137.39,115.906,156.189
-0.387,-0.711,0.719,-158.325,72.998,58.594
-0.078,-0.628,0.431,-151.794,65.125,27.893
0.033,-0.59,0.286,-132.812,53.894,7.019
-0.122,-2.573,1.023,259.338,-221.13,65.002
-0.211,-2.849,1.423,261.108,-202.393,210.327
-0.452,-3.336,2.223,236.023,-181.396,286.621
-0.66,-3.332,2.511,115.784,-92.407,412.781
-1.011,-2.776,2.469,18.677,-29.968,443.359
-1.084,-2.392,2.283,-210.51,91.858,428.467
-1.228,-1.518,2.081,-323.059,160.645,410.339
-1.286,-1.118,1.915,-583.374,288.147,373.108
-1.208,-0.495,1.001,-721.191,302.368,348.694
-1.264,-0.047,0.203,-879.883,253.357,277.893
-1.633,1.669,-2.384,-856.811,208.74,188.843
-1.485,2.348,-3.451,-595.032,-43.64,-179.687
-0.585,1.698,-3.323,-423.584,-205.261,-366.943
-0.28,0.905,-3.026,-127.869,-326.721,-481.995
-0.692,-0.47,-2.933,37.903,-331.604,-448.425
-1.084,-1.215,-2.625,420.959,-356.873,-427.856
-1.272,-2.948,-1.787,556.946,-375.915,-454.712
-0.964,-3.688,-1.352,601.074,-472.168,-462.402
0.139,-4,0.191,538.208,-545.532,-371.46
0.182,-4,1.208,427.246,-526.306,28.992
-0.801,-3.598,2.169,441.528,-374.145,224.365
-1.305,-3.042,2.039,454.285,-130.188,376.953
-1.544,-2,2.135,380.188,-115.295,336.975
-1.294,-1.737,2.353,132.69,-94.543,183.35
-0.793,-1.572,2.235,19.043,-49.5,130.249
-0.715,-1.528,1.883,-94.666,62.378,103.455
-0.665,-1.218,0.994,-111.694,103.699,113.403
-0.581,-0.99,0.631,-132.935,114.502,107.117
-0.271,-0.693,0.218,-140.137,92.773,79.468
-0.094,-0.675,0.141,-140.503,66.223,44.556
-0.452,-2.887,0.737,258.606,-218.079,-23.132
-0.415,-3.403,1.337,265.991,-252.747,82.031
-0.392,-3.914,2.329,240.479,-233.459,173.889
-0.548,-3.782,2.56,155.701,-114.319,408.63
-1.074,-2.788,2.334,88.623,-35.583,479.553
-1.186,-2.255,2.079,-95.032,82.397,463.928
-1.212,-1.413,1.81,-202.27,120.178,422.974
-1.233,-1.053,1.848,-448.12,227.295,354.431
-1.103,-0.61,1.402,-598.572,281.372,328.735
-1.073,-0.428,0.811,-850.708,300.476,311.34
-1.555,0.52,-0.98,-900.33,285.095,299.927
-1.863,1.347,-2.275,-799.011,188.599,103.577
-1.567,2.449,-4,-651.55,28.748,-102.966
-1.172,2.001,-3.849,-277.466,-330.933,-471.008
-0.701,0.05,-2.975,-90.332,-371.948,-521.484
-0.798,-0.864,-2.933,319.519,-315.491,-472.412
-1.247,-2.571,-2.547,513.367,-320.862,-471.374
-1.317,-3.36,-2.185,698.669,-421.02,-533.264
-0.669,-4,-1.147,665.71,-514.587,-525.208
-0.259,-4,-0.252,479.431,-707.519,-249.39
-0.889,-3.982,2.098,442.505,-680.664,-8.728
-1.451,-3.967,2.753,529.236,-290.955,362.854
-2.05,-3.315,2.697,506.531,-148.987,423.584
-2.051,-2.662,2.57,250.793,-104.553,343.506
-1.544,-1.724,2.251,118.225,-80.017,256.226
-1.215,-1.574,1.947,-73.669,28.259,120.911
-0.734,-1.381,1.161,-150.94,71.777,100.952
-0.594,-1.174,0.748,-225.281,131.042,115.784
-0.355,-0.687,-0.039,-219.543,144.226,111.572
-0.233,-0.512,-0.305,-178.711,107.056,57.983
-0.287,-2.58,0.943,278.015,-216.187,61.035
-0.352,-2.896,1.336,269.287,-221.191,175.781
-0.539,-3.361,1.919,222.107,-214.844,235.291
-0.649,-3.387,2.15,82.336,-160.034,340.332
-0.866,-2.895,2.473,-5.615,-87.891,370.422
-0.923,-2.529,2.32,-226.99,103.821,386.78
-1.127,-1.796,1.905,-349.121,176.758,387.573
-1.213,-1.494,1.765,-594.177,295.349,388.184
-1.254,-0.862,1.137,-709.961,331.909,389.465
-1.416,-0.466,0.537,-892.7,336.975,388.061
-2.203,0.912,-1.84,-947.998,296.57,339.355
-2.387,2.009,-3.369,-852.661,13.733,-23.132
-1.794,2.365,-4,-676.269,-211.06,-283.997
-1.319,1.281,-3.902,-186.401,-372.192,-569.397
-1.063,-1.191,-3.891,89.111,-323.486,-568.481
-1.232,-2.251,-3.751,594.971,-318.726,-545.41
-1.185,-3.841,-2.865,746.826,-367.371,-559.692
-0.863,-4,-2.314,743.896,-538.452,-528.076
-0.403,-4,-0.702,657.104,-637.634,-422.302
-0.702,-3.985,0.474,589.233,-648.132,-50.659
-1.437,-3.994,2.829,610.657,-522.522,122.986
-1.503,-4,3.425,476.074,-253.906,330.566
-1.619,-3.578,3.158,313.599,-160.278,370.239
-1.591,-2.86,2.599,7.996,5.737,330.017
-1.184,-1.63,1.467,-107.788,63.904,276.733
-0.916,-1.27,0.978,-218.079,108.521,191.345
-0.475,-0.626,0.293,-209.839,108.765,163.269
-0.302,-0.369,0.062,-145.264,106.14,103.699
-0.01,-0.068,-0.312,-129.333,92.773,67.993
0.079,-0.064,-0.422,-130.31,22.705,-18.616
0.124,-2.347,-0.334,223.145,-173.584,-103.271
0.179,-2.822,-0.009,337.524,-242.676,6.47
0.027,-3.49,1.028,351.99,-270.63,88.989
-0.205,-3.654,1.524,310.852,-251.587,280.701
-0.706,-3.686,2.142,262.39,-215.881,369.629
-0.959,-3.452,2.277,105.347,-152.527,475.891
-1.223,-2.66,2.427,1.587,-104.858,473.694
-1.174,-2.287,2.356,-237.549,61.157,416.931
-1.197,-1.6,1.975,-364.563,144.47,407.593
-1.341,-1.218,1.771,-596.558,261.597,418.03
-1.541,-0.359,1.242,-694.153,287.659,414.062
-1.626,0.08,0.696,-890.503,274.719,362.732
-1.999,1.077,-1.599,-973.877,228.882,286.743
-2.006,1.72,-3.101,-894.775,-36.499,-65.857
-1.51,1.95,-3.948,-702.698,-245.3,-289.612
-1.198,1.077,-3.3,-199.402,-412.781,-538.513
-0.967,-1.015,-2.855,48.157,-346.741,-539.429
-1.057,-1.867,-2.913,481.262,-281.189,-524.475
-1.141,-3.207,-2.518,628.54,-326.965,-547.302
-1.011,-3.685,-2.117,692.627,-496.948,-557.678
-0.614,-4,-1.067,630.859,-593.384,-500.183
-0.698,-4,-0.32,520.02,-698.181,-231.995
-1.27,-3.989,1.585,525.879,-647.888,-63.965
-1.394,-3.992,2.331,524.78,-397.278,224.854
-1.429,-3.877,2.822,438.477,-288.452,324.646
-1.528,-3.423,2.686,189.514,-108.887,413.086
-1.49,-1.993,1.941,83.374,-15.381,388.611
-1.288,-1.512,1.556,-115.051,80.505,254.333
-0.83,-1.04,0.923,-195.251,96.497,194.275
-0.635,-0.844,0.585,-231.445,122.986,111.938
0.033,-2.684,0.784,139.404,-222.961,66.406
-0.072,-2.907,1.344,142.578,-260.925,228.577
-0.345,-3.182,2.634,102.661,-244.934,306.335
-0.899,-2.587,3.031,-21.606,-60.547,450.684
-1.136,-2.092,2.727,-117.92,69.641,492.126
-1.425,-1.296,2.143,-364.136,246.216,482.91
-1.515,-0.995,1.87,-501.892,293.213,454.834
-1.571,-0.452,0.707,-785.644,324.646,381.287
-1.857,-0.113,-0.398,-908.935,318.237,343.994
-2.597,1.763,-3.663,-993.286,204.102,153.748
-2.334,2.466,-4,-868.713,-26.367,-82.092
-1.188,0.376,-3.301,-333.008,-528.442,-563.477
-0.83,-0.935,-3.051,-40.833,-505.005,-613.464
-0.969,-2.463,-3.044,498.352,-290.222,-518.066
-1.148,-3.087,-2.754,814.148,-367.92,-538.147
-0.81,-4,-1.601,823.669,-466.125,-558.228
-0.36,-4,-0.795,628.296,-671.02,-394.958
-0.348,-4,1.436,530.762,-724.487,-193.604
-0.807,-3.984,2.433,489.563,-507.385,234.192
-1.489,-3.929,2.783,483.948,-318.665,368.591
-1.573,-3.6,2.513,308.533,-130.92,449.768
-1.42,-2.226,2.01,179.504,-96.497,427.612
-1.221,-1.6,1.763,-27.161,13.611,316.65
-0.739,-0.898,1.148,-102.051,64.27,247.559
-0.563,-0.737,0.81,-176.147,111.633,112.366
-0.264,-0.551,0.11,-186.035,120.117,67.078
-0.118,-0.451,-0.157,-191.101,118.713,49.5
0.143,-0.317,-0.467,-158.02,97.778,42.603
0.23,-0.378,-0.467,-118.347,71.35,20.264
0.266,-0.66,-0.212,-48.645,4.517,-33.142
0.245,-2.746,0.414,148.56,-194.641,16.235
0.283,-3.212,0.84,173.279,-240.845,155.212
0.07,-3.638,1.935,155.762,-235.962,248.657
-0.51,-2.908,2.448,75.562,-89.111,416.016
-0.742,-2.351,2.28,-0.671,14.038,460.815
-0.886,-1.822,2.151,-223.816,129.272,466.003
-1.106,-0.954,2.242,-364.929,173.401,449.097
-1.246,-0.568,2.081,-679.993,291.87,414.856
-1.729,0.062,0.458,-839.111,322.693,395.996
-2.217,0.643,-1.093,-1023.01,219.055,251.648
-2.682,2.567,-4,-957.458,29.48,46.082
-2.307,2.377,-3.977,-521.545,-410.339,-490.54
-1.121,-0.426,-3.28,-234.497,-419.373,-621.948
-0.81,-1.583,-3.626,375.977,-243.835,-607.727
-0.862,-2.942,-3.547,610.413,-257.812,-593.323
-0.785,-3.455,-2.943,751.709,-460.571,-590.21
-0.348,-4,-1.379,702.698,-560.608,-531.067
-0.334,-4,-0.49,596.313,-667.664,-241.272
-0.824,-3.995,1.659,572.327,-648.56,-56.213
-1.024,-3.99,2.6,488.403,-440.552,262.878
-1.243,-3.941,3.048,392.578,-302.856,374.268
-1.424,-3.555,2.633,153.076,-78.064,454.346
-1.551,-1.765,1.681,42.236,-2.502,411.438
-1.339,-1.048,1.32,-139.954,72.388,230.225
-0.688,-0.468,0.728,-191.223,90.393,146.118
-0.354,-0.344,0.446,-216.125,129.517,64.392
0.075,-0.136,-0.129,-204.773,139.16,50.72
0.16,-0.105,-0.409,-152.405,119.69,15.93
0.225,-0.276,-0.779,-118.347,89.294,-11.292
0.25,-0.448,-0.794,-46.692,9.583,-68.359
0.33,-2.756,0.482,93.811,-181.641,38.574
0.357,-3.076,0.824,136.23,-230.286,147.888
0.51,-3.375,1.737,133.484,-222.717,225.281
0.492,-3.224,1.981,0.549,-147.888,416.016
-0.213,-2.355,1.721,-110.84,-114.868,506.287
-0.909,-1.373,2.137,-233.948,14.832,518.127
-1.11,-0.848,2.141,-291.504,146.423,483.154
-1.43,-0.273,1.856,-570.679,304.932,468.018
-2.326,0.766,0.287,-773.193,293.03,429.81
-2.926,1.346,-1.169,-1066.162,125.732,173.523
-3.253,2.529,-3.987,-1010.864,-68.604,-86.67
-2.66,1.871,-3.772,-546.387,-495.422,-650.513
-1.188,-1.161,-2.505,-268.738,-495.911,-766.663
-0.764,-2.152,-2.755,315.735,-238.525,-708.435
-0.572,-3.041,-3.062,548.401,-205.2,-664.49
-0.561,-3.399,-2.62,693.42,-407.104,-612.61
-0.484,-3.992,-1.176,664.123,-527.466,-543.03
-0.548,-4,-0.343,584.839,-656.738,-278.564
-0.736,-4,1.911,554.443,-650.268,-116.516
-0.786,-3.991,2.774,483.032,-410.889,192.383
-0.953,-3.85,2.855,404.297,-255.127,304.138
-1.127,-3.358,2.461,164.49,-44.312,393.433
-1.146,-1.888,1.484,45.837,24.414,367.004
-0.941,-1.4,1.066,-137.451,103.76,240.967
-0.505,-0.899,0.422,-188.477,113.586,182.251
-0.333,-0.73,0.203,-189.514,109.741,104.492
-0.037,-0.48,-0.204,-159.79,108.154,77.087
0.079,-0.392,-0.399,-101.99,78.552,28.992
0.23,-0.388,-0.477,-78.918,46.57,5.005
0.285,-0.486,-0.365,-33.02,-6.348,-31.616
0.405,-2.294,0.168,23.437,-141.846,-22.766
0.409,-2.595,0.583,36.194,-169.434,42.847
0.331,-2.844,1.415,15.381,-161.011,88.196
0.191,-2.758,1.642,-78.491,-100.769,190.979
-0.066,-2.238,1.635,-139.038,-62.378,234.07
-0.126,-1.918,1.592,-264.832,14.954,273.437
-0.235,-1.458,1.595,-331.299,62.561,274.658
-0.322,-1.291,1.508,-460.693,147.949,278.564
-0.546,-0.744,1.356,-507.385,168.335,283.813
-0.737,-0.319,1.212,-595.398,217.773,284.241
-1.737,0.852,-0.179,-668.396,249.145,259.705
-2.399,1.746,-1.808,-842.895,85.327,36.499
-2.736,2.525,-3.891,-825.195,-164.185,-207.092
-2.227,1.453,-3.785,-383.606,-435.181,-649.841
-1.094,-1.38,-3.825,-16.418,-347.534,-687.5
-0.937,-2.241,-3.893,593.872,-202.393,-596.497
-0.824,-3.458,-3.213,709.534,-277.222,-586.243
-0.636,-3.919,-2.56,682.983,-533.02,-529.297
-0.475,-4,-0.673,643.31,-625.61,-415.832
-0.633,-4,0.604,573.73,-646.423,-78.918
-1,-3.987,2.74,531.494,-549.5,84.961
-1.15,-3.996,3.014,373.352,-259.705,311.768
-1.466,-3.521,2.429,257.263,-154.968,355.652
-1.507,-2.861,1.983,48.401,-49.133,322.571
-1.232,-1.627,1.251,-29.236,-16.602,283.875
-0.996,-1.177,0.943,-112.122,34.241,213.318
-0.516,-0.538,0.422,-113.037,40.222,172.546
-0.304,-0.382,0.251,-78.918,39.368,89.6
0.015,-0.276,-0.002,-71.228,43.64,64.819
0.086,-0.282,-0.11,-75.134,33.386,31.494
0.421,-2.844,0.591,116.272,-186.462,-14.404
0.466,-3.2,0.966,83.008,-208.435,105.713
0.356,-3.355,1.582,51.025,-176.025,184.204
0.163,-3.047,1.626,-45.837,-39.612,324.585
-0.202,-2.103,1.258,-104.187,25.513,359.375
-0.285,-1.704,1.15,-231.995,91.003,369.446
-0.391,-1.022,1.294,-300.964,118.53,367.065
-0.436,-0.607,1.367,-439.575,204.224,369.69
-0.853,0.37,1.093,-511.902,252.258,371.094
-1.205,0.768,0.448,-708.008,271.851,326.66
-2.127,1.976,-1.902,-796.631,184.509,243.225
-2.382,2.585,-2.753,-735.352,-173.706,-154.114
-1.948,1.614,-2.64,-565.43,-314.636,-389.709
-1.498,0.307,-2.623,-94.727,-309.448,-605.53
-0.987,-1.765,-3.259,169.983,-240.601,-599.915
-0.847,-2.387,-3.403,556.763,-231.995,-590.82
-0.471,-3.377,-2.684,616.821,-325.684,-592.468
-0.322,-3.794,-1.941,594.238,-540.71,-470.032
-0.407,-4,-0.119,579.285,-605.53,-332.336
-0.626,-4,1.01,555.298,-578.186,1.953
-0.82,-3.989,2.778,517.273,-470.093,143.677
-0.851,-3.899,2.986,310.791,-189.087,313.782
-1.075,-2.785,2.214,165.649,-73.914,334.29
-1.081,-2.117,1.587,-83.252,54.993,269.043
-0.731,-1.379,0.64,-149.475,71.594,217.346
-0.525,-1.148,0.421,-137.39,72.632,140.442
-0.191,-0.677,0.189,-100.891,79.468,118.591
-0.05,-0.469,0.071,-79.224,69.031,81.36
0.135,-0.298,-0.157,-86.548,47.852,55.908
0.184,-0.342,-0.243,-73.303,13.55,0.427
0.501,-2.59,0.434,81.543,-116.821,19.531
0.478,-2.77,0.694,84.961,-128.357,116.821
0.23,-2.792,1.127,64.88,-116.699,173.523
0.06,-2.677,1.265,-8.667,-65.186,272.4
-0.102,-2.314,1.414,-62.683,-34.241,303.833
-0.121,-2.079,1.437,-200.562,43.701,345.886
-0.204,-1.502,1.368,-274.902,96.313,365.723
-0.278,-1.166,1.29,-426.514,195.984,396.606
-0.558,-0.428,1.052,-499.878,230.286,405.334
-0.869,-0.031,0.754,-626.526,269.592,400.452
-1.778,1.198,-0.672,-683.227,251.526,365.234
-2.189,2.04,-1.684,-750.366,56.702,120.483
-2.368,2.601,-2.972,-715.515,-114.441,-99.365
-2.04,1.702,-3.066,-426.208,-346.802,-503.052
-1.166,-0.926,-3.279,-161.926,-333.862,-586.487
-0.926,-1.808,-3.389,436.401,-215.759,-580.2
-0.675,-2.704,-3.106,623.596,-223.328,-575.867
-0.513,-2.962,-2.627,677.917,-405.029,-574.097
-0.249,-3.612,-1.192,630.31,-501.343,-525.085
-0.29,-3.948,-0.345,563.843,-580.811,-292.053
-0.687,-4,1.405,544.067,-549.805,-149.17
-0.797,-4,2.031,453.979,-383.118,86.06
-0.784,-3.873,2.431,373.535,-284.119,166.565
-0.793,-3.489,2.209,171.143,-102.844,246.582
-0.761,-2.251,1.351,69.946,-38.452,245.178
-0.686,-1.753,0.946,-66.589,24.353,186.34
-0.448,-1.145,0.379,-89.539,38.879,150.269
-0.305,-0.929,0.218,-91.675,43.762,117.187
-0.175,-0.749,0.137,-76.904,36.255,62.927
0.039,-0.541,0.034,-71.472,36.194,40.649
0.507,-2.252,0.268,-10.986,-126.892,5.554
0.472,-2.393,0.401,-36.072,-146.545,86.304
0.173,-2.284,0.748,-46.326,-142.883,134.583
0.075,-2.141,0.971,-84.595,-97.9,195.618
0.042,-1.869,1.38,-128.601,-63.904,210.876
-0.015,-1.703,1.555,-252.747,25.33,242.981
-0.277,-1.253,1.858,-314.636,91.736,266.663
-0.526,-0.963,1.863,-441.223,259.155,327.881
-1.089,-0.35,1.126,-521.24,324.768,343.018
-1.387,0.028,0.481,-685.303,325.684,296.143
-2.026,1.252,-1.185,-746.277,259.766,209.9
-2.05,1.809,-1.924,-741.211,-7.324,-130.188
-1.602,1.297,-2.402,-655.456,-153.687,-324.524
-1.281,0.304,-2.577,-341.186,-260.742,-573.12
-0.718,-1.559,-3.099,-126.709,-239.99,-615.967
-0.489,-2.187,-3.185,282.898,-267.395,-619.202
-0.203,-3.087,-2.549,431.885,-340.271,-590.515
-0.199,-3.366,-1.931,573.486,-499.39,-461.06
-0.418,-3.857,-0.321,576.721,-559.143,-364.319
-0.646,-4,0.622,521.912,-575.745,-123.535
-1.022,-4,2.179,489.807,-504.272,-5.127
-1.072,-3.911,2.507,382.629,-283.508,172.241
-1.081,-3.167,2.379,290.222,-195.374,219.482
-1.044,-2.655,2.049,95.642,-65.491,237.427
-0.827,-1.819,1.165,27.1,-17.273,218.567
-0.659,-1.567,0.787,-39.734,37.048,160.889
-0.296,-1.197,0.315,-57.678,46.082,143.677
-0.142,-1.001,0.177,-76.904,41.26,134.216
0.029,-0.642,0.018,-73.608,35.095,127.93
0.041,-0.511,-0.045,-63.11,29.053,115.417
0.387,-2.517,0.466,2.808,-122.253,-35.278
0.363,-2.765,0.749,-42.908,-141.235,23.987
0.205,-2.839,1.156,-66.162,-122.803,76.233
0.105,-2.658,1.281,-111.877,-55.115,185.852
-0.052,-2.041,1.429,-148.01,-18.799,225.464
-0.113,-1.68,1.475,-253.174,67.749,268.066
-0.224,-0.961,1.517,-320.435,122.253,278.137
-0.33,-0.613,1.462,-456.726,238.403,293.823
-0.635,0.07,0.894,-521.484,287.354,301.697
-0.968,0.452,0.225,-638.916,315.43,294.25
-2.147,1.973,-1.964,-670.776,251.892,233.704
-2.393,2.651,-2.718,-600.342,-83.496,-151.55
-1.565,1.439,-2.645,-457.458,-212.28,-376.282
-1.091,0.235,-2.766,-34.912,-193.237,-534.729
-0.734,-1.347,-3.228,182.19,-163.147,-520.569
-0.646,-1.812,-3.068,487.854,-238.647,-506.409
-0.406,-2.543,-2.218,547.913,-308.594,-503.357
-0.255,-2.917,-1.684,534.607,-431.519,-433.899
-0.357,-3.687,-0.431,509.033,-477.661,-348.45
-0.682,-3.944,0.271,483.765,-486.572,-131.287
-0.989,-4,1.407,464.722,-446.472,-37.537
-0.92,-3.999,1.79,350.037,-327.209,117.187
-0.76,-3.526,1.872,265.747,-243.591,183.166
-0.757,-3.05,1.586,104.004,-82.153,260.498
-0.753,-2.117,0.808,44.312,-25.33,263.855
-0.669,-1.779,0.496,-30.029,12.146,225.586
-0.432,-1.301,0.274,-41.748,7.751,199.768
-0.317,-1.102,0.239,-33.936,14.648,158.203
-0.123,-0.755,0.108,-34.79,17.761,140.564
-0.049,-0.636,0.064,-54.321,7.507,97.595
0.531,-2.196,0.227,18.921,-107.971,14.954
0.464,-2.346,0.479,6.287,-116.882,76.538
0.27,-2.34,0.951,-13.733,-104.614,110.229
0.186,-2.227,1.15,-90.393,-61.218,167.358
0.116,-1.886,1.415,-139.709,-30.762,192.078
0.08,-1.66,1.45,-228.455,51.941,245.544
-0.108,-1.073,1.444,-255.92,98.755,276.672
-0.345,-0.703,1.492,-281.128,200.378,332.703
-0.977,0.167,1.427,-312.805,250.122,332.397
-1.262,0.617,1.124,-479.065,269.653,227.173
-1.809,1.588,-0.141,-584.229,213.928,130.188
-2.076,2.018,-0.926,-680.359,31.921,-146.973
-2.26,1.726,-2.628,-621.277,-51.636,-314.453
-2.032,0.786,-3.36,-231.934,-146.057,-586.609
-1.29,-1.511,-3.965,49.255,-148.804,-648.193
-0.89,-2.49,-3.977,473.145,-190.43,-669.678
-0.051,-3.937,-3.202,549.194,-281.86,-641.174
0.277,-4,-2.392,542.114,-492.92,-453.918
0.332,-4,-0.368,527.466,-549.377,-294.983
-0.084,-3.982,0.675,516.418,-484.314,30.823
-0.854,-3.97,1.963,482.422,-378.845,137.329
-1.014,-3.803,2.075,273.193,-205.872,220.459
-1.093,-2.956,1.723,146.912,-149.048,220.947
-1.002,-2.512,1.388,-8.484,-48.279,185.73
-0.724,-1.861,0.777,-32.41,-13.916,155.151
-0.562,-1.621,0.558,-68.97,23.56,119.934
-0.192,-1.1,0.199,-95.398,37.292,124.573
-0.03,-0.839,0.026,-118.774,47.18,114.197
0.121,-0.483,-0.243,-114.99,39.063,90.82
0.164,-0.413,-0.326,-88.989,9.766,34.058
0.171,-2.487,0.633,65.186,-138.306,40.894
0.088,-2.596,0.955,14.832,-113.098,107.178
-0.083,-2.452,1.269,-30.579,-80.322,139.282
-0.119,-2.22,1.263,-133.789,-10.559,180.786
-0.058,-1.736,1.216,-180.054,21.79,192.871
-0.023,-1.511,1.209,-252.991,95.215,229.98
-0.125,-0.856,1.13,-281.982,132.874,250.061
-0.272,-0.384,1.093,-341.98,185.059,240.479
-0.463,0.508,0.997,-385.681,197.571,202.881
-0.552,0.869,0.763,-484.436,210.022,107.3
-1.033,1.696,-0.339,-515.32,203.491,55.603
-1.367,2.075,-1.085,-512.207,116.394,-122.986
-1.659,1.85,-2.429,-452.637,36.072,-260.986
-1.511,1.038,-2.822,-152.283,-96.985,-504.944
-1.026,-1.012,-3.208,48.218,-130.676,-554.321
-0.789,-1.871,-3.22,359.192,-216.553,-540.466
-0.138,-3.083,-2.573,425.598,-287.231,-504.028
0.199,-3.47,-1.903,444.641,-416.687,-343.262
0.172,-3.803,-0.275,450.195,-433.166,-212.708
-0.268,-3.706,0.439,471.619,-359.497,29.236
-0.98,-3.335,1.337,448.853,-302.612,88.745
-0.978,-3.214,1.536,302.673,-211.304,119.019
-0.64,-2.993,1.568,212.646,-165.222,128.967
-0.49,-2.799,1.395,68.42,-57.8,167.48
-0.436,-2.147,0.816,19.958,-14.771,182.19
-0.451,-1.791,0.522,-36.194,23.254,168.213
-0.352,-1.238,0.204,-49.316,19.531,143.005
-0.241,-1.069,0.171,-54.932,4.456,89.355
-0.033,-0.822,0.117,-53.833,3.845,70.618
0.018,-0.705,0.076,-55.359,0.488,43.945
0.414,-2.054,-0.658,81.543,-104.614,-37.659
0.439,-2.365,-0.485,102.173,-184.082,29.602
0.356,-2.886,0.19,91.431,-223.877,75.134
0.226,-3.059,0.719,55.725,-223.145,168.579
-0.031,-3,1.547,28.076,-162.415,215.027
-0.204,-2.697,1.609,-80.872,-21.484,292.847
-0.494,-1.795,1.381,-148.437,25.452,306.396
-0.505,-1.391,1.301,-271.667,85.632,288.818
-0.416,-0.681,1.335,-319.641,108.032,275.574
-0.421,-0.288,1.4,-374.695,167.419,252.502
-0.596,0.572,1.111,-394.226,203.735,233.093
-0.787,1.06,0.708,-440.063,232.727,158.081
-1.429,2.095,-0.469,-469.421,214.05,88.867
-1.729,2.445,-1.251,-503.967,88.806,-160.034
-1.814,1.633,-2.903,-443.603,2.441,-324.585
-1.594,0.601,-3.397,-59.143,-98.206,-565.674
-1.001,-1.467,-3.597,167.603,-117.981,-609.741
-0.591,-2.274,-3.363,411.377,-216.797,-591.553
0.322,-3.341,-2.409,427.002,-296.021,-527.649
0.476,-3.651,-1.753,430.298,-424.622,-286.072
-0.101,-3.919,-0.256,461.426,-435.059,-148.193
-0.462,-3.967,0.485,478.638,-369.507,41.626
-0.708,-3.979,1.673,413.025,-327.393,92.896
-0.653,-3.85,1.967,203.552,-208.557,167.114
-0.554,-3.171,1.647,105.53,-127.136,203.491
-0.558,-2.69,1.224,-26.062,0.61,248.596
-0.515,-1.762,0.509,-51.208,26.062,241.333
-0.427,-1.382,0.316,-58.96,33.203,190.186
-0.166,-0.759,0.148,-69.824,31.006,165.344
-0.047,-0.497,0.09,-87.83,28.687,141.174
0.362,-2.004,-0.378,65.979,-106.689,-46.875
0.384,-2.38,-0.142,80.627,-162.842,5.92
0.422,-3.13,0.498,63.721,-181.03,47.791
0.373,-3.363,0.813,5.432,-168.091,179.932
0.039,-3.085,1.287,-23.376,-124.39,258.301
-0.11,-2.643,1.361,-104.797,-4.028,365.051
-0.254,-1.704,1.249,-166.138,46.997,386.108
-0.326,-1.292,1.141,-285.583,128.235,397.034
-0.538,-0.474,0.986,-327.515,157.227,392.456
-0.694,-0.062,0.979,-377.38,192.139,351.685
-1.032,0.796,0.755,-403.809,204.346,307.922
-1.193,1.294,0.357,-483.398,182.129,167.908
-1.558,2.177,-0.784,-528.87,135.925,69.153
-1.711,2.289,-1.463,-549.744,4.883,-200.378
-1.496,1.111,-2.672,-474.853,-58.472,-348.999
-1.147,0.042,-3.047,-98.694,-111.084,-521.24
-0.53,-1.61,-3.338,139.038,-114.258,-529.114
-0.307,-2.069,-3.168,471.558,-185.059,-490.356
0.084,-2.654,-2.171,529.48,-255.981,-459.473
0.172,-2.977,-1.477,509.338,-393.799,-340.759
-0.076,-3.734,-0.011,487.488,-426.758,-251.221
-0.21,-4,0.687,455.872,-386.23,-70.19
-0.177,-4,1.659,409.973,-330.627,16.296
-0.169,-3.905,1.818,257.812,-184.448,166.809
-0.253,-3.062,1.475,179.321,-108.704,212.28
-0.287,-2.498,1.135,33.264,-5.676,227.966
-0.268,-1.576,0.53,-26.428,17.395,207.703
-0.209,-1.234,0.307,-96.619,28.748,148.132
-0.031,-0.739,0.011,-107.788,25.146,117.31
0.061,-0.572,-0.08,-95.703,13.672,64.27
0.532,-1.999,-0.44,63.171,-44.189,-44.434
0.611,-2.343,-0.231,52.002,-94.91,-1.16
0.675,-2.946,0.336,27.893,-113.22,36.316
0.401,-2.961,0.681,-32.471,-100.83,143.311
0.257,-2.738,0.701,-63.721,-78.369,196.533
0.176,-2.179,0.774,-128.967,-43.213,265.93
0.173,-1.912,0.816,-170.715,-24.109,289.612
-0.046,-1.279,0.755,-258.545,37.598,342.285
-0.22,-0.89,0.726,-285.95,72.571,362.366
-0.494,0.027,0.915,-303.894,118.896,366.516
-0.711,0.544,1.008,-312.439,136.841,351.99
-0.963,1.056,0.898,-390.137,169.128,263.062
-1.357,1.904,-0.1,-466.614,153.198,182.312
-1.582,2.183,-0.786,-569.397,24.719,-49.561
-1.749,1.892,-1.669,-527.161,-54.443,-198.73
-1.569,1.169,-1.922,-224.731,-120.3,-436.401
-1.132,-0.605,-2.424,-6.836,-100.464,-485.84
-0.962,-1.345,-2.685,340.637,-76.66,-536.804
-0.389,-2.669,-2.81,403.931,-135.01,-564.88
0.379,-3.8,-1.872,408.874,-348.755,-525.146
0.569,-4,-0.959,420.044,-435.669,-417.664
0.459,-4,0.064,498.535,-429.749,-91.064
-0.143,-3.953,1.673,523.071,-342.407,47.913
-0.291,-3.754,1.979,400.818,-171.936,184.265
-0.369,-2.985,1.937,277.283,-118.774,199.036
-0.307,-2.607,1.727,65.308,-13.55,191.101
-0.167,-1.943,1.177,-2.563,33.875,184.753
-0.11,-1.626,0.863,-79.041,98.206,163.696
0.023,-1.108,0.299,-107.178,108.459,152.832
0.108,-0.856,0.051,-144.836,105.53,142.761
0.575,-2.1,-0.325,36.865,-111.267,-41.26
0.581,-2.471,-0.111,55.237,-175.232,-5.676
0.554,-2.922,0.609,46.936,-191.589,28.198
0.322,-2.699,1.268,-5.493,-165.894,124.207
0.146,-2.353,1.414,-43.945,-125.61,175.171
-0.01,-1.934,1.445,-129.272,-30.518,244.812
-0.191,-1.124,1.559,-174.255,13.184,260.01
-0.225,-0.788,1.698,-273.376,116.15,274.78
-0.454,-0.116,1.681,-333.008,180.908,281.128
-0.63,0.242,1.296,-484.375,279.602,270.325
-1.268,1.083,-0.007,-548.462,282.288,243.042
-1.71,1.604,-0.749,-585.999,179.687,72.51
-1.958,1.926,-1.936,-555.42,74.28,-86.67
-1.671,1.257,-2.238,-307.739,-71.96,-387.146
-0.943,-0.606,-2.813,-114.685,-69.214,-452.393
-0.664,-1.3,-3.065,211.121,-81.909,-478.088
-0.048,-2.226,-2.938,316.04,-136.23,-475.525
0.237,-2.486,-2.544,431.885,-278.198,-408.874
0.475,-2.854,-1.378,459.839,-336.853,-341.003
0.38,-3.081,-0.726,479.919,-396.973,-171.875
-0.027,-3.585,0.476,472.839,-388,-92.041
-0.129,-3.78,0.924,397.583,-315.063,34.912
-0.157,-3.831,1.464,324.219,-271.24,90.698
-0.18,-3.637,1.513,168.762,-166.565,183.533
-0.28,-2.969,1.228,106.567,-110.901,213.806
-0.334,-2.565,1.021,6.592,-32.776,231.628
-0.313,-1.775,0.704,-36.194,-13.489,219.727
-0.241,-1.428,0.596,-103.516,12.268,178.467
-0.069,-0.827,0.314,-125.732,21.057,157.532
0.009,-0.573,0.171,-141.357,18.738,116.333
0.667,-2.038,0.286,-24.719,-94.543,-6.226
0.587,-2.124,0.442,-26.428,-103.333,50.415
0.364,-1.988,0.809,-34.424,-101.196,76.416
0.281,-1.839,1.008,-84.595,-79.285,102.6
0.194,-1.516,1.237,-121.582,-56.213,107.239
0.158,-1.351,1.303,-184.937,-3.418,119.507
0.106,-1.003,1.609,-203.186,28.442,132.446
0.066,-0.818,1.782,-251.099,133.789,174.499
-0.269,-0.347,1.76,-299.927,201.294,195.251
-0.542,-0.054,1.533,-425.537,305.664,203.491
-1.268,0.706,0.711,-486.328,328.308,183.777
-1.726,1.156,-0.086,-620.3,268.982,54.626
-2.125,1.349,-2.527,-673.828,151.062,-87.402
-1.774,0.641,-3.487,-435.242,-87.036,-424.927
-0.583,-1.314,-4,-122.62,-98.694,-504.639
-0.158,-1.908,-3.978,391.54,-103.333,-475.464
0.117,-2.071,-2.819,476.013,-181.702,-434.387
0.038,-1.946,-2.078,486.633,-327.209,-361.999
-0.222,-2.258,-0.966,495.361,-354.004,-329.529
-0.248,-2.762,-0.447,489.685,-384.033,-243.774
0.014,-3.703,0.699,454.224,-386.047,-182.373
0.174,-3.901,1.122,346.924,-304.321,-23.376
0.096,-3.701,1.299,290.588,-233.093,58.899
-0.055,-3.436,1.151,195.862,-114.258,169.983
-0.216,-2.813,0.844,152.283,-85.815,189.941
-0.207,-2.512,0.75,81.36,-57.617,175.049
-0.094,-2.006,0.618,51.331,-39.49,161.255
-0.043,-1.747,0.549,-31.555,-10.315,161.804
-0.047,-1.161,0.354,-66.711,-2.38,164.124
-0.078,-0.885,0.235,-85.327,-1.526,125.244
0.834,-2.073,-0.168,-27.649,-112.732,-52.673
0.802,-2.317,-0.014,-31.921,-147.095,-0.549
0.561,-2.427,0.462,-43.884,-144.531,79.407
0.331,-2.175,1.005,-70.679,-130.066,112
0.236,-1.974,1.182,-159.363,-72.144,158.264
-0.014,-1.501,1.335,-200.623,-32.898,178.101
-0.126,-1.256,1.425,-241.394,62.317,225.769
-0.424,-0.687,1.638,-250.183,125.427,255.798
-0.667,-0.337,1.55,-323.547,252.441,284.912
-1.285,0.442,0.841,-393.616,278.503,259.766
-1.539,0.848,0.322,-533.875,228.088,110.474
-1.736,1.448,-0.791,-578.43,166.26,-6.47
-1.659,1.343,-1.406,-537.231,34.668,-272.278
-1.197,0.234,-2.754,-415.222,-5.554,-380.371
-0.909,-0.407,-3.148,-19.043,-44.128,-491.211
-0.352,-1.461,-3.129,167.114,-75.317,-506.653
-0.099,-1.825,-2.817,386.658,-194.458,-484.436
0.245,-2.278,-1.872,428.833,-257.202,-448.059
0.347,-2.501,-1.337,445.923,-349.609,-331.543
0.454,-3.073,-0.183,437.805,-374.268,-249.573
0.411,-3.308,0.36,405.151,-333.984,-61.401
0.216,-3.424,0.948,367.371,-278.015,24.414
0.024,-3.28,0.986,251.099,-171.692,143.127
-0.231,-2.788,0.856,196.35,-129.944,167.297
-0.231,-2.52,0.798,100.647,-83.801,161.682
-0.166,-2.009,0.685,60.791,-72.693,145.508
-0.132,-1.815,0.578,3.296,-46.997,109.009
-0.076,-1.525,0.303,-17.395,-34.302,97.229
-0.085,-1.367,0.183,-32.288,-26.55,91.125
-0.127,-1.012,0.063,-43.213,-32.898,76.66
0.298,-1.846,0.774,-99.609,-63.782,41.321
0.304,-1.874,0.974,-163.635,-33.691,70.74
0.298,-1.766,1.154,-199.219,-5.92,91.125
0.251,-1.602,1.138,-252.075,64.88,139.893
0.11,-1.115,1.08,-268.188,98.877,161.987
0.015,-0.824,1.092,-291.809,153.076,191.711
-0.344,-0.112,1.186,-300.537,179.993,197.266
-0.67,0.286,1.134,-329.712,231.262,174.744
-1.324,1.096,0.556,-362.488,241.821,130.981
-1.488,1.484,0.073,-456.604,197.693,-34.607
-1.819,1.899,-1.17,-489.258,150.024,-143.25
-1.897,1.599,-1.977,-424.499,19.775,-386.353
-1.488,-0.13,-3.352,-267.944,-42.419,-485.107
-1.166,-1.167,-3.632,197.083,-88.623,-574.219
-0.245,-3.11,-3.437,351.868,-130.249,-580.078
0.279,-3.769,-2.898,411.743,-311.157,-483.337
0.913,-4,-1.171,408.936,-383.911,-367.187
0.702,-4,-0.274,450.684,-396.973,-76.355
-0.22,-3.742,1.039,457.825,-348.999,28.32
-0.427,-3.584,1.344,344.971,-249.084,114.38
-0.449,-3.168,1.464,250,-218.384,133.728
-0.417,-2.872,1.353,121.704,-147.766,170.898
-0.37,-2.201,1.067,94.116,-112.061,181.03
-0.374,-1.887,0.935,64.209,-59.937,163.635
-0.36,-1.394,0.685,38.208,-43.335,147.339
-0.312,-1.191,0.573,-43.762,-25.33,126.648
-0.191,-0.803,0.311,-71.716,-21.729,109.741
-0.132,-0.679,0.215,-75.684,-24.536,52.063
0.051,-0.614,0.12,-65.491,-23.987,30.029
0.141,-0.607,0.107,-53.955,-18.799,14.16
0.379,-2.107,0.521,-71.655,-68.848,33.691
0.363,-2.15,0.704,-90.271,-51.27,95.276
0.275,-1.911,0.945,-108.276,-30.09,126.404
0.208,-1.719,0.99,-162.109,22.095,171.814
0.049,-1.346,1.137,-187.927,50.11,187.378
-0.043,-1.152,1.254,-233.643,114.624,215.637
-0.32,-0.627,1.438,-255.859,153.931,228.638
-0.545,-0.294,1.356,-326.782,234.68,231.934
-1.115,0.589,0.704,-372.192,252.502,206.116
-1.412,1.093,0.268,-456.36,222.168,77.759
-1.769,1.673,-0.904,-482.3,187.866,-20.264
-1.726,1.543,-1.768,-425.476,108.215,-240.662
-1.3,0.632,-3.36,-297.18,66.345,-338.196
-0.968,0.002,-3.68,92.285,-14.221,-472.9
-0.318,-1.249,-3.459,258.667,-57.312,-504.883
-0.022,-1.741,-3.131,418.274,-178.04,-501.709
0.234,-2.525,-2.132,445.801,-243.958,-468.384
0.302,-3.047,-1.475,477.478,-338.867,-350.83
0.495,-4,0.168,463.623,-367.615,-260.498
0.48,-4,0.961,367.798,-313.293,-40.527
0.199,-3.845,1.484,302.246,-225.525,56.458
0.007,-3.467,1.262,158.936,-88.013,164.49
-0.233,-2.529,0.697,97.595,-64.209,172.852
-0.237,-2.186,0.54,37.476,-56.335,129.517
-0.118,-1.842,0.4,26.367,-49.194,109.131
-0.059,-1.661,0.362,-18.86,-26.245,133.911
-0.043,-1.1,0.191,-35.4,-16.602,147.095
-0.084,-0.837,0.116,-41.931,-18.738,111.45
-0.056,-0.555,-0.038,-41.687,-21.362,75.989
0.025,-0.532,-0.099,-43.945,-34.119,14.343
-1.209,0.925,1.252,-241.516,343.628,217.895
-1.653,1.376,0.724,-396.912,346.863,113.403
-2.266,1.791,-0.839,-480.774,287.537,-2.258
-2.147,1.436,-1.842,-489.258,139.16,-297.302
-1.231,-0.046,-3.553,-342.163,94.482,-405.212
-0.751,-0.832,-4,103.882,39.185,-479.187
-0.039,-2.201,-3.975,278.32,-25.757,-480.286
0.254,-2.674,-3.496,448.303,-218.689,-450.928
0.739,-3.355,-1.715,470.398,-296.936,-404.358
0.755,-3.601,-0.771,457.031,-374.145,-220.703
0.303,-3.79,0.679,433.899,-363.831,-118.164
0.112,-3.795,1.039,333.374,-268.127,31.25
-0.009,-3.486,1.158,267.09,-216.309,86.487
0.01,-3.153,1.075,166.138,-129.456,171.997
-0.001,-2.327,0.881,122.803,-98.083,196.289
-0.059,-1.937,0.756,39.001,-49.011,190.369
-0.164,-1.371,0.418,7.08,-33.081,166.321
-0.155,-1.205,0.272,-32.166,-27.405,112.915
-0.05,-0.965,0.15,-40.527,-33.325,93.14
0.011,-0.86,0.141,-36.011,-37.231,62.439
0.112,-0.701,0.14,-30.334,-33.569,49.5
0.145,-0.657,0.134,-29.419,-24.719,26.245
0.208,-0.664,0.091,-34.424,-21.24,15.381
0.252,-0.713,0.049,-40.161,-14.893,0.916
0.337,-0.812,-0.022,-36.011,-11.902,0.061
0.368,-0.839,-0.032,-18.738,-6.409,8.24
0.389,-0.827,-0.012,-10.376,-3.357,13.245
0.388,-0.808,0,-4.822,0.854,14.771
0.412,-0.828,0.009,-8.85,1.892,11.475
0.429,-0.865,-0.002,-17.639,5.676,8.911
0.523,-1.828,0.427,-75.256,-98.511,14.099
0.473,-1.769,0.525,-102.844,-96.191,62.866
0.376,-1.537,0.799,-114.868,-88.074,87.097
0.187,-1.218,1.188,-136.108,-34.668,126.404
0.105,-1.035,1.291,-157.471,8.972,137.146
-0.101,-0.697,1.358,-228.76,82.947,148.499
-0.253,-0.552,1.348,-254.028,115.723,153.87
-0.44,-0.397,1.322,-263.062,185.181,163.33
-0.922,0.088,1.177,-262.756,218.994,157.959
-1.174,0.437,0.942,-304.993,258.362,88.806
-1.498,1.016,0.057,-346.802,244.385,18.555
-1.453,1.044,-0.541,-375.915,180.359,-159.607
-1.127,0.629,-2.088,-324.951,158.325,-238.159
-0.969,0.321,-2.838,-119.08,99.304,-365.784
-0.542,-0.535,-3.488,-3.235,39.734,-429.077
-0.234,-1.055,-3.397,199.707,-99.243,-511.841
0.27,-1.853,-2.73,283.875,-160.645,-504.211
0.354,-2.11,-2.188,404.724,-255.737,-406.616
0.326,-2.737,-0.844,432.922,-289.673,-334.961
0.252,-3.065,-0.16,410.583,-305.42,-173.34
0.179,-3.414,0.799,366.76,-268.25,-98.816
0.156,-3.394,0.889,246.948,-152.649,23.254
0.079,-3.081,0.617,192.505,-114.075,65.369
0.088,-2.881,0.503,123.84,-83.74,111.084
0.128,-2.427,0.427,102.234,-75.867,120.483
0.086,-2.2,0.371,68.237,-56.091,113.525
-0.04,-1.838,0.193,43.152,-51.514,113.708
-0.076,-1.608,0.118,-1.038,-56.519,126.892
-0.102,-1.203,0.088,-6.958,-66.101,113.342
-0.075,-1.073,0.122,-12.573,-72.449,78.735
0.496,-2.026,0.344,-65.674,-103.76,27.527
0.479,-2.037,0.43,-108.093,-96.436,75.684
0.4,-1.938,0.548,-129.639,-85.449,104.065
0.347,-1.837,0.604,-167.175,-49.561,164.734
0.18,-1.498,0.676,-180.298,-24.414,193.481
0.063,-1.297,0.734,-186.157,32.104,241.638
-0.234,-0.872,1.043,-178.04,65.491,264.954
-0.424,-0.605,1.19,-188.721,154.48,300.72
-0.92,0.168,1.122,-226.501,192.017,294.861
-1.179,0.605,0.925,-349.976,208.191,200.073
-1.498,1.287,0.286,-414.429,193.359,118.286
-1.584,1.495,-0.093,-457.458,158.02,-74.341
-1.572,1.362,-1.147,-419.434,149.536,-175.171
-1.389,0.964,-1.818,-247.437,117.31,-358.948
-0.832,-0.18,-2.732,-121.704,86.304,-427.612
-0.569,-0.758,-2.912,124.451,16.479,-516.174
0.092,-1.784,-2.992,209.595,-28.259,-537.415
0.451,-2.174,-2.799,320.74,-165.039,-491.516
0.81,-2.723,-1.795,369.629,-232.056,-421.143
0.778,-2.943,-1.119,442.2,-300.964,-237.183
0.452,-3.222,0.1,443.298,-297.913,-149.963
0.294,-3.258,0.518,365.234,-236.694,-22.278
0.115,-3.098,0.882,299.622,-197.021,20.935
0.086,-2.901,0.881,174.072,-123.596,80.017
0.061,-2.411,0.675,131.775,-92.773,92.651
0.062,-2.205,0.532,80.627,-41.748,96.436
0.103,-1.823,0.27,48.706,-26.062,105.225
0.096,-1.57,0.183,-15.198,-19.775,120.911
0.032,-1.144,0.073,-26.428,-20.874,107.971
0.037,-1.031,0.058,-30.762,-22.095,67.81
