aX,aY,aZ,gX,gY,gZ
0.243,-0.141,2.709,180.725,19.47,47.729
0.162,-0.268,3.277,171.265,-74.829,35.706
0.173,-0.914,4,156.006,-63.538,25.696
0.369,-1.148,4,59.937,86.67,57.434
0.55,-1.192,3.692,-14.954,101.685,77.82
0.493,-1.155,3.331,-186.462,-29.541,90.149
0.226,-0.961,2.55,-253.357,-75.5,92.834
0.113,-0.827,2.182,-276.428,-30.396,98.572
0.071,-0.73,1.512,-247.62,22.217,98.572
0.111,-0.754,1.12,-190.796,88.135,93.933
0.246,-0.777,0.161,-175.598,86.67,93.933
0.314,-0.726,-0.242,-155.762,26.245,92.346
0.24,-0.41,-0.633,-137.207,-12.695,87.769
0.132,-0.277,-0.635,-68.97,-47.363,56.824
-0.015,-0.176,-0.47,-33.813,-41.443,32.837
-0.067,-0.17,-0.348,-24.475,-46.936,-17.7
-0.117,-0.198,-0.211,-52.856,-72.815,-43.03
-0.099,-0.194,-0.19,-130.798,-145.325,-80.505
-0.11,-0.155,-0.119,-164.917,-164.734,-93.628
-0.075,-0.153,-0.146,-176.208,-135.193,-119.202
-0.039,-0.131,-0.125,-128.296,-76.477,-118.835
0.001,-0.026,-0.007,-110.046,-56.824,-111.084
0.025,0.012,0.058,-91.675,-44.312,-96.375
0.062,0.091,0.265,-80.444,-41.748,-88.379
0.077,0.135,0.371,-41.809,-10.742,-62.5
0.09,0.23,0.511,-20.813,15.503,-43.457
0.086,0.281,0.527,-3.906,54.382,-8.24
0.078,0.38,0.475,-8.606,54.81,2.441
0.065,0.43,0.456,-21.301,26.489,12.024
-0.008,0.545,0.531,-20.813,11.414,13.977
0.386,-0.104,2.395,76.66,37.415,-9.033
0.494,-0.163,2.711,99.243,44.495,-10.986
0.712,-0.516,3.29,93.262,52.673,-4.456
0.773,-0.738,3.434,14.771,66.895,29.053
0.616,-1.055,3.392,-42.175,67.505,49.133
0.482,-1.16,3.233,-151.123,76.782,70.129
0.338,-1.352,2.591,-196.411,86.243,72.144
0.322,-1.409,2.195,-242.31,94.666,85.144
0.285,-1.376,1.474,-246.948,96.802,96.985
0.292,-1.329,1.113,-272.644,82.764,113.892
0.36,-1.184,0.493,-303.162,47.913,115.845
0.394,-1.07,0.313,-347.046,-35.889,108.032
0.388,-0.845,0.082,-340.393,-49.011,111.389
0.365,-0.738,-0.032,-272.339,-14.771,147.766
0.225,-0.418,-0.299,-223.083,12.878,173.828
0.033,-0.174,-0.367,-143.738,36.865,195.923
-0.297,0.241,-0.423,-136.108,5.981,165.527
-0.312,0.335,-0.417,-148.743,-115.967,54.932
-0.234,0.316,-0.29,-134.155,-152.405,11.841
-0.207,0.233,-0.194,-55.664,-134.766,-17.7
-0.177,0.138,0.043,-15.076,-104.431,-14.404
-0.203,0.176,0.129,4.211,-56.274,-15.808
-0.266,0.204,0.12,-22.827,-66.528,-33.813
-0.234,0.166,0.118,-64.27,-125.122,-82.092
-0.052,0.059,0.207,-55.664,-132.507,-90.82
0.021,0.046,0.271,-8.545,-83.13,-72.388
0.064,0.153,0.38,12.878,-48.035,-56.519
0.055,0.223,0.432,33.569,3.967,-30.396
0.041,0.289,0.499,32.166,18.066,-23.315
0.046,0.303,0.518,23.926,22.217,-20.752
0.295,-0.041,2.603,94.482,17.212,5.92
0.37,-0.241,2.892,121.704,13.977,13.794
0.411,-0.749,3.439,131.409,14.526,31.006
0.358,-0.919,3.682,85.327,27.344,44.922
0.302,-1.266,3.736,14.526,33.447,36.926
0.297,-1.446,3.441,-153.931,37.109,30.762
0.225,-1.603,2.581,-224.792,36.865,31.555
0.206,-1.586,2.136,-324.402,28.992,37.537
0.251,-1.37,1.276,-354.614,20.813,45.532
0.291,-1.169,0.902,-380.066,9.094,69.946
0.26,-0.632,0.33,-372.742,13.184,87.646
0.193,-0.435,0.084,-326.477,27.1,116.089
0.146,-0.265,-0.222,-291.626,19.775,113.647
0.153,-0.198,-0.276,-198.059,11.047,98.694
0.09,-0.063,-0.377,-146.057,17.273,93.872
0.004,-0.001,-0.427,-90.393,-14.282,51.331
-0.1,0.013,-0.475,-108.887,-78.125,2.625
-0.04,-0.096,-0.387,-146.057,-211.365,-90.637
0.181,-0.283,-0.082,-125.427,-214.722,-99.792
0.215,-0.296,0.018,-54.199,-112.366,-43.274
0.052,-0.176,0.117,-31.189,-59.143,-8.667
-0.092,-0.056,0.178,-22.461,-7.629,15.32
-0.339,0.143,0.214,-37.17,-9.766,0
-0.334,0.143,0.191,-72.693,-68.298,-68.97
-0.092,0.074,0.281,-71.411,-90.698,-95.215
0.034,0.079,0.357,-33.569,-57.8,-90.698
0.107,0.161,0.42,-16.052,-18.677,-67.566
0.081,0.217,0.402,-7.812,41.748,-23.56
0.066,0.361,0.344,-15.93,45.837,-15.869
0.094,0.433,0.336,-37.231,14.954,-19.958
0.18,-0.094,2.885,133.484,6.714,13.489
0.258,-0.299,3.276,172.302,39.612,-8.911
0.536,-1.063,3.862,164.734,61.096,-12.268
0.662,-1.417,3.983,41.687,81.482,13.184
0.764,-1.815,3.522,-55.908,75.806,32.593
0.727,-1.883,3.028,-201.965,48.218,68.97
0.609,-1.893,2.06,-225.83,40.222,83.191
0.589,-1.834,1.67,-225.647,37.903,108.582
0.528,-1.573,1.039,-225.037,34.851,121.582
0.452,-1.359,0.786,-250.305,2.197,136.597
0.268,-0.79,0.392,-272.156,-28.076,130.798
0.175,-0.458,0.201,-314.636,-81.787,96.985
0.052,-0.056,-0.246,-327.148,-105.164,74.219
0.052,-0.022,-0.367,-281.006,-122.803,39.612
0.094,-0.032,-0.443,-219.116,-97.229,35.278
0.08,0.001,-0.454,-78.857,-20.264,37.964
-0.092,0.158,-0.356,-37.659,-8.423,28.137
-0.181,0.228,-0.295,-64.88,-81.97,-45.227
-0.218,0.129,-0.172,-106.995,-150.146,-93.75
-0.168,-0.011,-0.049,-110.413,-194.153,-138
-0.036,-0.164,0.143,-69.641,-148.193,-123.84
-0.038,-0.144,0.162,-8.301,-37.964,-76.294
-0.146,0.009,0.194,-8.301,-14.832,-67.078
-0.19,0.064,0.24,-42.603,-23.071,-81.421
-0.114,0.019,0.307,-54.565,-30.762,-91.858
-0.013,-0.026,0.317,-43.457,-14.465,-88.257
0.191,-0.021,0.3,-24.597,10.376,-69.885
0.252,0.042,0.306,0.977,56.946,-19.714
0.251,0.257,0.302,-7.263,60.974,-2.441
0.217,0.356,0.277,-51.086,12.756,-1.282
0.274,-0.118,2.515,81.848,24.414,35.583
0.256,-0.106,2.938,75.5,52.429,34.058
0.336,-0.222,3.429,54.077,73.608,29.907
0.39,-0.329,3.443,-7.08,90.088,22.278
0.456,-0.658,3.251,-37.842,75.012,21.423
0.426,-0.873,3.135,-88.257,26.184,29.053
0.391,-1.305,2.821,-111.023,11.841,30.518
0.434,-1.458,2.515,-164.856,5.493,35.461
0.488,-1.434,1.664,-201.111,-6.775,45.471
0.456,-1.307,1.274,-264.648,-52.368,69.641
0.387,-1.011,0.724,-277.527,-61.951,82.397
0.363,-0.801,0.542,-285.706,-46.204,108.643
0.216,-0.286,0.173,-291.687,-35.278,116.577
0.117,-0.117,-0.022,-283.02,-41.443,103.271
-0.002,-0.032,-0.148,-252.869,-49.194,86.67
-0.011,-0.041,-0.13,-156.006,-39.612,53.101
0.033,-0.051,-0.124,-104.553,-27.039,39.612
0.03,-0.038,-0.08,-31.372,-7.507,17.395
-0.046,0.059,0.007,-32.227,-17.395,-0.854
-0.067,0.084,0.024,-82.642,-85.754,-51.697
-0.041,0.023,0.039,-89.966,-104.431,-66.467
-0.007,-0.027,0.014,-42.175,-78.613,-62.439
-0.003,-0.006,0.087,-10.681,-57.068,-51.941
-0.079,0.073,0.223,2.38,-23.132,-38.94
-0.202,0.169,0.332,-25.635,-22.156,-46.997
-0.173,0.149,0.279,-92.773,-68.176,-80.872
-0.031,0.067,0.223,-99.609,-84.045,-87.341
0.009,0.055,0.252,-49.866,-36.011,-65.063
0.02,0.116,0.343,-18.738,5.127,-47.668
0.03,0.17,0.391,1.77,46.57,-27.771
0.125,-0.089,2.918,67.322,50.598,0.61
0.225,-0.201,3.039,54.321,76.538,-27.1
0.431,-0.553,3.038,51.086,77.881,-31.494
0.452,-0.759,3.035,54.077,49.866,-18.311
0.438,-1.291,3.128,42.542,34.607,-7.324
0.404,-1.627,3.093,-64.453,59.326,20.325
0.612,-1.806,2.23,-154.48,83.923,38.757
0.735,-1.542,1.661,-268.005,27.588,63.904
0.618,-1.268,1.376,-278.381,-34.851,59.387
0.516,-1.31,1.443,-305.725,-71.533,42.053
0.488,-1.166,1.099,-328.674,-34.302,48.95
0.493,-0.969,0.682,-328.796,69.824,108.582
0.38,-0.57,-0.119,-297.668,110.657,144.043
0.252,-0.37,-0.351,-251.099,99.976,172.485
-0.057,-0.065,-0.389,-251.831,45.471,152.588
-0.121,-0.011,-0.293,-233.887,-52.185,78.796
-0.092,-0.025,-0.137,-202.698,-67.932,54.321
-0.095,-0.01,-0.098,-127.563,-51.514,43.762
-0.219,0.087,-0.062,-93.201,-30.334,41.809
-0.322,0.138,-0.039,-68.848,-21.973,13.245
-0.382,0.12,0.052,-83.984,-49.561,-16.296
-0.306,0.068,0.071,-101.257,-84.167,-58.289
-0.119,0.023,-0.019,-85.876,-67.749,-56.152
-0.065,0.041,-0.079,-41.138,-19.592,-37.476
-0.063,0.126,-0.099,-27.771,-11.902,-35.4
-0.108,0.231,-0.018,-27.161,-35.645,-52.124
-0.1,0.228,0.062,-37.17,-64.27,-68.97
0.052,0.149,0.302,-43.457,-98.938,-90.454
0.13,0.184,0.425,-31.86,-81.909,-79.773
0.153,0.364,0.508,-15.442,-16.113,-31.982
0.383,0.056,2.464,37.781,29.114,-3.906
0.461,0.047,2.656,35.034,63.354,-8.179
0.646,-0.162,3.009,30.701,73.914,-8.301
0.74,-0.356,3.139,6.653,80.2,6.775
0.821,-0.743,3.125,-10.62,80.017,20.142
0.771,-0.881,3.004,-65.247,58.472,46.326
0.502,-1.032,2.72,-106.506,33.813,53.101
0.371,-1.072,2.559,-182.739,8.484,52.063
0.348,-1.171,2.023,-207.642,22.705,53.894
0.398,-1.179,1.643,-240.967,60.364,83.435
0.374,-0.926,0.923,-255.554,63.416,105.041
0.302,-0.733,0.619,-302.307,15.625,119.751
0.129,-0.433,0.22,-314.941,-20.63,108.887
0.08,-0.373,0.148,-260.62,-29.724,84.045
0.047,-0.304,0.057,-204.041,0.122,80.261
-0.001,-0.213,-0.015,-122.192,38.696,69.153
-0.147,0.023,-0.201,-130.249,6.836,44.128
-0.156,0.065,-0.264,-176.697,-115.234,-34.302
-0.005,-0.068,-0.22,-166.443,-150.452,-61.401
0.088,-0.151,-0.124,-71.472,-112.915,-57.129
0.158,-0.109,0.046,-20.752,-59.998,-36.438
0.104,-0.007,0.098,21.423,18.372,-0.916
-0.107,0.172,0.152,3.052,20.02,-1.221
-0.148,0.196,0.152,-75.317,-49.622,-46.326
-0.016,0.14,0.203,-93.384,-80.444,-68.97
0.092,0.108,0.251,-63.171,-63.904,-69.702
0.172,0.159,0.324,-41.016,-32.043,-52.124
0.149,0.204,0.329,-22.705,18.555,-15.198
0.066,0.25,0.358,-27.588,24.353,-5.981
0.06,0.267,0.406,-53.345,3.113,-14.16
0.474,-0.143,2.427,76.965,10.132,1.404
0.561,-0.155,2.755,96.008,25.146,-2.991
0.794,-0.414,3.41,104.919,38.696,-1.282
0.87,-0.857,3.743,95.764,60.73,20.264
0.783,-1.015,3.705,55.115,55.237,34.668
0.628,-1.134,3.537,-104.919,19.287,42.542
0.384,-1.283,2.77,-185.913,15.381,40.833
0.292,-1.299,2.273,-278.992,23.621,49.377
0.219,-1.167,1.329,-295.715,30.273,59.937
0.263,-1.027,0.901,-287.964,66.284,99.243
0.223,-0.46,0.153,-271.24,82.703,129.089
0.11,-0.158,-0.121,-270.569,23.376,135.376
0.024,0.038,-0.223,-278.748,-45.105,99.854
0.035,0.003,-0.104,-232.544,-111.267,38.757
0.026,-0.01,0.026,-180.054,-95.032,26.428
0.043,0.012,0.005,-77.209,-47.852,27.1
-0.031,0.117,0.074,-47.119,-32.349,31.616
-0.135,0.189,0.102,-80.2,-51.819,-1.709
-0.203,0.157,0.052,-119.141,-87.708,-39.795
-0.12,0.054,0.013,-138.245,-130.981,-89.233
0.021,-0.103,0.023,-113.403,-123.901,-84.045
0.015,-0.101,0.068,-43.335,-63.599,-47.302
-0.048,0.015,0.167,-20.63,-30.457,-35.889
-0.088,0.099,0.196,-39.551,-19.287,-49.194
-0.091,0.14,0.198,-66.956,-41.321,-68.176
-0.034,0.086,0.201,-83.74,-70.74,-90.82
0.11,0.008,0.219,-65.125,-59.998,-84.167
0.148,0.009,0.25,-7.507,-7.874,-48.096
0.129,0.106,0.403,12.268,14.832,-31.799
0.107,0.195,0.502,4.15,30.823,-22.4
0.433,-0.312,2.276,94.727,-14.038,-2.319
0.499,-0.313,2.607,94.543,5.615,-0.122
0.432,-0.248,3.078,71.35,14.038,4.639
0.301,-0.173,3.162,-4.456,20.203,4.944
0.132,-0.222,3.107,-28.137,31.25,-1.709
0.147,-0.434,3.058,-37.415,57.861,-9.521
0.306,-0.943,2.883,-58.289,54.932,-12.512
0.41,-1.13,2.67,-162.17,15.32,-13.184
0.421,-1.256,1.961,-213.074,0.854,-2.869
0.346,-1.24,1.553,-243.103,11.719,38.452
0.274,-1.1,0.914,-228.577,25.33,59.021
0.248,-0.938,0.72,-201.172,28.259,87.341
0.085,-0.452,0.489,-213.013,4.333,88.135
-0.008,-0.24,0.405,-264.038,-75.439,54.016
-0.074,-0.1,0.295,-265.93,-95.764,37.292
-0.061,-0.102,0.239,-188.965,-63.843,28.625
-0.091,-0.019,0.126,-131.531,-36.133,25.33
-0.126,0.043,0.148,-61.096,-19.409,-3.906
-0.162,0.153,0.226,-74.768,-40.039,-33.997
-0.116,0.15,0.173,-151.062,-124.878,-113.22
0.07,0.015,0.03,-156.677,-147.766,-133.545
0.154,-0.059,0.012,-76.965,-98.45,-106.75
0.203,-0.072,0.109,-30.396,-52.063,-77.576
0.128,0.029,0.182,-6.165,0.122,-42.542
-0.043,0.221,0.247,-28.809,-7.935,-47.913
-0.057,0.197,0.229,-56.824,-26.428,-60.608
0.032,0,0.181,-78.918,-47.852,-71.289
0.068,-0.048,0.243,-64.88,-43.579,-63.477
0.074,-0.039,0.336,-14.343,4.211,-29.419
0.031,0.1,0.422,-2.197,30.884,-13.794
0.176,-0.115,2.701,111.145,33.569,-13.306
0.237,-0.303,3.001,123.23,65.43,-36.682
0.517,-0.784,3.18,98.816,75.745,-38.147
0.579,-0.948,2.999,3.662,52.124,-6.897
0.4,-0.992,2.532,-39.795,26.306,11.841
0.248,-0.936,2.329,-96.619,-0.916,31.616
0.108,-0.96,1.884,-121.338,-5.676,34.485
0.101,-1.007,1.669,-170.471,-28.259,40.71
0.045,-0.853,1.33,-189.514,-33.691,43.457
0.051,-0.737,1.127,-232.361,-34.485,41.504
0.049,-0.548,0.639,-246.582,-35.889,41.138
0.011,-0.536,0.478,-217.529,-14.893,52.673
-0.066,-0.518,0.415,-194.641,-2.441,55.42
-0.082,-0.443,0.363,-233.704,-51.147,14.587
0.012,-0.282,0.078,-264.526,-94.666,-16.663
0.041,-0.202,-0.035,-219.421,-95.947,-30.396
0.014,-0.115,-0.106,-162.476,-63.232,-16.479
-0.005,-0.068,-0.05,-78.491,-10.742,2.38
-0.038,0.126,-0.04,-78.064,-11.902,-8.789
-0.061,0.193,-0.058,-110.474,-67.932,-57.922
-0.038,0.193,0.043,-97.778,-73.853,-70.068
-0.001,0.158,0.109,-30.273,-19.958,-47.424
0.014,0.124,0.223,-8.728,10.803,-26.306
-0.023,0.159,0.26,-38.818,13.672,-16.052
-0.041,0.191,0.271,-70.435,-8.789,-30.457
0.016,0.143,0.284,-74.524,-17.7,-40.894
0.086,0.105,0.341,-48.95,7.874,-24.841
0.058,0.172,0.307,-12.817,52.49,5.066
0,0.349,0.281,-13.794,44.006,-1.648
0.022,0.379,0.334,-35.828,-8.301,-38.757
0.21,-0.196,2.501,63.843,43.701,-16.235
0.352,-0.326,2.617,65.979,71.167,-33.813
0.606,-0.637,2.707,59.509,72.449,-30.884
0.637,-0.777,2.719,14.038,40.771,-4.028
0.517,-0.976,2.609,-23.926,19.836,9.155
0.453,-1.031,2.487,-99.792,5.188,23.193
0.337,-1.089,2.117,-140.564,1.221,29.358
0.285,-1.072,1.829,-208.496,7.751,49.561
0.238,-0.877,1.133,-220.398,21.24,63.721
0.207,-0.658,0.823,-227.722,34.607,97.107
0.054,-0.177,0.365,-250.061,7.935,95.459
0.001,-0.064,0.208,-295.349,-80.322,44.617
0.061,-0.081,0.094,-281.006,-99.182,22.278
0.135,-0.135,0.111,-190.979,-73.303,23.071
0.167,-0.193,0.151,-137.512,-48.462,37.964
0.102,-0.132,0.201,-55.176,-9.033,51.086
-0.071,0.136,0.266,-47.18,-6.104,39.49
-0.119,0.241,0.237,-92.59,-50.293,-21.057
-0.12,0.215,0.196,-116.699,-86.548,-55.908
-0.071,0.115,0.234,-106.812,-112.183,-88.623
0.031,0.018,0.313,-79.468,-91.248,-82.275
0.06,0.049,0.317,-19.409,-25.146,-46.57
0.046,0.151,0.364,4.395,4.761,-27.527
0.003,0.183,0.418,12.939,25.757,-13.733
-0.036,0.183,0.457,-41.382,10.803,-23.071
-0.002,0.154,0.454,-79.468,-16.357,-41.382
0.054,0.122,0.446,-100.769,-34.424,-52.185
0.101,0.148,0.381,-82.703,-17.822,-38.757
0.012,0.294,0.399,-24.475,25.208,-5.493
-0.048,0.341,0.473,-2.014,38.025,2.502
0.267,-0.315,2.259,15.93,48.34,-7.324
0.222,-0.366,2.335,11.902,40.222,-0.61
0.265,-0.557,2.403,17.456,46.753,-5.371
0.362,-0.687,2.331,8.911,45.166,-3.296
0.384,-0.857,2.148,-18.555,19.226,8.301
0.314,-0.856,2.064,-84.778,-30.701,32.349
0.105,-0.768,1.815,-107.849,-33.63,40.833
0.047,-0.731,1.64,-132.141,-9.521,44.861
0.04,-0.571,1.231,-145.752,-0.061,45.288
0.041,-0.449,1.011,-189.941,-11.047,45.471
0.038,-0.32,0.671,-205.994,-27.649,40.222
0.062,-0.306,0.587,-189.941,-39.185,27.893
0.106,-0.183,0.54,-165.344,-29.114,27.954
0.082,-0.057,0.53,-139.587,-8.301,32.898
-0.01,0.125,0.448,-153.381,-17.517,25.513
-0.025,0.1,0.409,-187.988,-64.758,-12.695
0.039,-0.022,0.409,-182.129,-74.768,-28.564
0.066,-0.026,0.401,-130.249,-43.884,-30.151
0.036,0.079,0.366,-98.999,-17.029,-20.264
-0.015,0.156,0.396,-64.087,27.527,-2.625
-0.099,0.217,0.392,-84.778,24.231,-9.949
-0.092,0.173,0.317,-160.217,-41.565,-54.504
0.019,0.092,0.227,-161.987,-61.34,-68.909
0.067,0.114,0.253,-91.614,-26.733,-55.786
0.055,0.184,0.299,-57.739,2.686,-38.818
0.018,0.189,0.304,-43.701,16.113,-29.602
0.019,0.148,0.325,-58.533,-4.028,-40.771
0.07,0.136,0.363,-69.031,-36.072,-56.152
0.142,0.184,0.459,-53.955,-27.832,-48.828
0.122,0.223,0.488,-18.616,10.01,-21.118
0.345,-0.367,2.01,-0.61,37.415,-15.686
0.384,-0.448,2.109,6.531,39.063,-5.676
0.448,-0.594,2.168,-9.949,35.461,-1.404
0.46,-0.607,2.055,-84.045,5.554,16.357
0.31,-0.515,1.771,-113.037,-14.893,27.405
0.209,-0.48,1.691,-107.605,-18.372,31.799
0.192,-0.563,1.584,-87.463,0.549,28.687
0.256,-0.619,1.486,-77.454,31.677,36.072
0.303,-0.552,1.183,-106.018,13.428,41.077
0.261,-0.474,1.076,-191.956,-72.144,32.776
0.224,-0.344,0.926,-211.731,-92.285,26.489
0.209,-0.261,0.824,-184.265,-50.964,38.879
0.145,-0.106,0.586,-155.334,-18.616,49.866
0.093,-0.049,0.525,-127.136,-12.268,45.105
0.033,-0.02,0.542,-140.137,-45.166,21.484
0.047,-0.038,0.57,-161.255,-99.426,-31.616
0.127,-0.043,0.544,-145.813,-93.75,-42.236
0.132,-0.028,0.503,-87.708,-46.814,-26.062
0.046,0.009,0.492,-56.824,-18.188,-10.315
-0.047,0.063,0.507,-46.387,12.39,-2.686
-0.108,0.132,0.437,-81.787,-11.963,-24.109
-0.038,0.116,0.388,-142.883,-76.843,-73.181
0.107,0.104,0.328,-132.568,-73.853,-74.768
0.113,0.127,0.315,-73.181,-22.095,-41.87
-0.006,0.175,0.327,-59.692,-6.592,-30.212
-0.036,0.199,0.343,-80.2,-25.635,-42.175
0.049,0.244,0.362,-90.454,-39.551,-53.467
0.096,0.255,0.358,-76.965,-32.593,-47.302
0.044,0.269,0.39,-57.861,-13.123,-30.762
0.004,0.284,0.419,-26.184,24.78,-5.371
0.546,-0.457,2.17,53.772,78.857,-37.781
0.7,-0.711,2.252,51.392,59.021,-6.653
0.595,-0.889,2.49,19.104,33.325,19.165
0.43,-0.853,2.502,-85.999,-8.057,40.588
0.244,-0.809,2.192,-127.38,-14.282,40.161
0.226,-0.789,1.987,-156.555,-6.165,41.199
0.229,-0.714,1.594,-158.447,2.808,45.532
0.219,-0.666,1.403,-167.236,10.986,61.646
0.164,-0.517,1.065,-180.054,-0.488,66.589
0.133,-0.425,0.935,-208.923,-39.917,59.265
0.112,-0.338,0.677,-210.693,-49.5,51.941
0.116,-0.314,0.574,-172.363,-38.879,43.823
0.117,-0.23,0.511,-147.766,-30.823,41.626
0.119,-0.202,0.505,-142.456,-42.969,23.865
0.122,-0.207,0.464,-155.64,-61.89,7.507
0.125,-0.198,0.45,-159.79,-77.576,-16.479
0.109,-0.101,0.414,-145.02,-64.148,-16.418
0.08,-0.031,0.37,-104.004,-15.137,0.671
-0.001,0.17,0.261,-97.961,-4.395,2.441
-0.034,0.259,0.217,-134.521,-50.903,-30.945
-0.01,0.259,0.2,-148.926,-78.369,-51.575
0.027,0.2,0.23,-118.469,-67.261,-58.472
0.085,0.147,0.288,-90.637,-41.565,-48.889
0.089,0.185,0.289,-53.894,-10.559,-33.02
0.012,0.292,0.294,-47.119,-10.559,-31.799
-0.03,0.315,0.341,-45.776,-28.076,-43.884
-0.038,0.286,0.494,-46.753,-33.508,-49.5
-0.006,0.269,0.551,-46.509,-20.02,-42.969
0.052,0.314,0.592,-45.715,-3.845,-30.579
0.048,0.352,0.557,-39.49,32.654,-3.662
0.364,-0.507,1.992,5.066,52.246,-16.785
0.43,-0.594,2.007,-0.061,57.8,-4.089
0.475,-0.655,1.969,-9.521,51.331,7.141
0.45,-0.674,1.934,-29.663,33.63,24.536
0.412,-0.755,1.876,-33.508,30.823,27.954
0.419,-0.797,1.844,-56.702,23.01,36.682
0.382,-0.803,1.687,-81.848,12.146,41.626
0.332,-0.768,1.571,-118.042,-2.136,51.941
0.254,-0.691,1.355,-120.483,2.014,58.35
0.241,-0.643,1.251,-125.366,17.883,74.097
0.201,-0.44,1.036,-137.451,20.996,82.275
0.161,-0.296,0.921,-186.34,-3.357,81.177
0.084,-0.06,0.687,-215.332,-31.86,67.078
0.074,0.015,0.596,-229.553,-70.129,30.762
0.142,0.11,0.5,-209.473,-67.017,20.02
0.173,0.131,0.464,-149.17,-40.466,22.278
0.122,0.175,0.421,-115.723,-25.208,27.649
0.061,0.22,0.442,-73.303,-9.338,18.982
-0.014,0.28,0.49,-84.351,-25.024,-3.601
0.009,0.254,0.475,-109.497,-53.101,-33.813
0.091,0.115,0.412,-129.639,-87.524,-73.669
0.107,0.046,0.398,-111.633,-79.529,-72.754
0.113,0.008,0.399,-54.749,-30.762,-48.035
0.116,0.023,0.408,-28.809,-1.831,-33.936
0.03,0.115,0.395,-12.207,36.682,-15.625
-0.024,0.149,0.343,-32.043,31.738,-21.79
0.001,0.152,0.283,-88.135,-24.231,-58.838
0.066,0.145,0.287,-96.313,-47.058,-72.571
0.151,0.166,0.321,-65.979,-47.241,-66.956
0.146,0.175,0.346,-26.184,-16.296,-41.321
0.181,-0.327,2.202,10.01,44.373,-5.859
0.296,-0.589,2.352,11.902,55.298,-8.24
0.378,-0.734,2.406,20.264,59.631,-6.409
0.438,-0.894,2.398,8.911,54.932,13.123
0.366,-0.872,2.347,-65.735,33.386,36.499
0.214,-0.77,1.982,-106.75,29.236,40.161
0.203,-0.743,1.692,-127.991,31.494,42.114
0.195,-0.646,1.313,-116.638,42.236,59.753
0.167,-0.528,1.182,-115.417,39.124,68.665
0.12,-0.373,1.038,-161.743,-4.15,62.378
0.073,-0.183,0.783,-192.688,-34.18,48.34
0.12,-0.229,0.697,-214.783,-80.627,13.489
0.228,-0.38,0.639,-202.27,-91.675,2.441
0.234,-0.4,0.643,-157.532,-86.853,-1.465
0.265,-0.393,0.745,-134.705,-67.749,3.357
0.241,-0.307,0.71,-143.555,-29.419,18.982
0.162,-0.202,0.604,-171.448,-28.992,20.935
0.019,-0.006,0.444,-197.876,-39.551,12.39
-0.025,0.039,0.393,-185.913,-34.18,8.057
-0.048,0.067,0.353,-127.991,-4.822,4.028
-0.094,0.199,0.355,-101.624,9.949,1.465
-0.121,0.272,0.328,-107.361,-3.906,-26.428
-0.11,0.2,0.285,-123.596,-28.015,-48.035
-0.055,0.097,0.274,-120.544,-41.382,-70.313
0.079,0.01,0.185,-100.342,-32.227,-66.833
0.133,0.027,0.158,-53.406,-19.104,-48.218
0.136,0.101,0.205,-40.649,-18.982,-41.443
0.089,0.145,0.233,-53.04,-37.476,-46.387
0.04,0.187,0.286,-63.721,-51.331,-54.749
0.078,0.198,0.333,-55.176,-46.326,-54.993
0.232,-0.515,2.037,4.211,30.762,-36.377
0.277,-0.586,2.014,-11.23,61.768,-19.287
0.358,-0.671,1.855,-14.893,79.407,-5.676
0.361,-0.676,1.77,-29.968,78.735,21.973
0.238,-0.621,1.656,-43.396,56.641,29.114
0.184,-0.617,1.599,-62.195,6.226,18.372
0.249,-0.734,1.543,-57.8,-3.784,10.986
0.311,-0.801,1.547,-44.128,13.916,25.635
0.29,-0.757,1.519,-59.265,23.254,39.917
0.208,-0.665,1.421,-141.357,3.052,46.692
0.094,-0.542,1.134,-175.476,-14.526,39.001
0.123,-0.531,1.023,-173.401,-20.325,31.067
0.182,-0.481,0.869,-145.569,-4.883,38.147
0.146,-0.403,0.791,-109.863,22.461,45.593
0.014,-0.27,0.639,-131.165,4.944,26.794
0.02,-0.289,0.606,-197.693,-64.026,-33.203
0.171,-0.371,0.52,-205.139,-72.937,-44.922
0.2,-0.354,0.42,-165.039,-37.109,-17.944
0.099,-0.206,0.254,-133.362,-13.672,2.014
0.012,-0.108,0.229,-87.585,20.142,14.648
-0.085,0.032,0.211,-92.651,15.198,-2.747
-0.046,0.03,0.216,-135.437,-35.461,-56.58
0.132,-0.028,0.243,-141.235,-46.57,-67.749
0.192,-0.039,0.22,-109.131,-19.043,-43.701
0.137,0.02,0.163,-87.463,-3.113,-26.428
0.094,0.065,0.185,-56.824,4.944,-16.052
0.06,0.169,0.335,-50.171,3.723,-18.86
0.048,0.216,0.381,-51.941,8.179,-25.574
0.08,0.268,0.335,-54.993,8.667,-27.588
0.122,0.268,0.32,-50.842,0.183,-26.123
0.32,-0.511,2.122,79.712,72.937,-36.865
0.411,-0.657,2.304,102.6,82.031,-38.086
0.467,-0.951,2.579,91.125,70.74,-29.907
0.417,-1.07,2.638,37.354,11.353,-17.944
0.31,-1.335,2.591,13.611,-9.338,-18.127
0.302,-1.475,2.432,-16.968,-6.653,-9.521
0.307,-1.596,1.97,-31.555,0.366,4.883
0.283,-1.534,1.778,-74.219,13.184,50.72
0.152,-1.196,1.385,-107.605,20.569,73.73
0.083,-0.979,1.144,-189.758,11.78,90.698
0.06,-0.633,0.762,-222.412,-0.427,88.257
0.083,-0.499,0.626,-240.845,-0.183,89.539
0.012,-0.2,0.409,-233.643,9.399,94.421
-0.071,-0.092,0.32,-228.516,15.32,82.581
-0.089,-0.066,0.19,-242.004,1.404,57.8
-0.045,-0.076,0.106,-269.47,-45.715,2.808
-0.02,-0.056,-0.003,-254.456,-58.899,-13.733
-0.009,-0.05,0.011,-176.636,-40.405,-19.348
-0.011,-0.028,0.057,-142.456,-19.775,-12.207
-0.033,-0.004,0.071,-114.075,11.292,-7.69
-0.068,0.054,0.081,-119.69,11.414,-16.418
-0.063,0.079,0.067,-148.437,-16.846,-44.25
-0.031,0.097,-0.025,-149.963,-30.273,-54.871
-0.003,0.094,-0.046,-103.455,-32.41,-60.791
0.095,0.086,0.062,-71.167,-21.606,-57.983
0.124,0.09,0.14,-30.518,4.028,-42.908
0.123,0.139,0.28,-24.109,12.024,-34.851
0.125,0.182,0.333,-28.687,18.311,-22.278
0.15,0.24,0.386,-34.058,18.982,-16.113
0.175,0.255,0.376,-32.959,22.827,-4.761
0.144,-0.405,2.284,112.244,15.015,1.099
0.21,-0.473,2.494,79.346,45.532,-5.31
0.392,-0.679,2.552,46.021,49.133,-3.174
0.418,-0.775,2.569,17.273,19.836,15.625
0.3,-0.969,2.849,25.513,10.986,25.208
0.239,-1.062,2.917,24.475,37.903,28.992
0.245,-1.222,2.684,-6.958,47.485,25.391
0.264,-1.266,2.438,-142.09,14.221,26.306
0.243,-1.207,1.767,-211.792,-10.254,31.189
0.244,-1.124,1.414,-260.498,-9.705,45.105
0.249,-0.851,0.791,-243.225,10.742,61.89
0.195,-0.659,0.598,-187.866,49.927,98.755
0.008,-0.309,0.35,-182.8,51.025,99.426
-0.054,-0.21,0.242,-229.187,-13.672,50.11
-0.025,-0.209,0.109,-245.666,-48.706,20.508
0.023,-0.248,0.059,-207.703,-52.551,-5.859
0.071,-0.24,-0.041,-161.926,-30.334,-4.211
0.07,-0.181,-0.04,-74.463,10.986,6.775
-0.011,0.048,0.074,-52.612,23.193,9.155
-0.083,0.166,0.121,-82.703,8.911,-10.62
-0.105,0.206,0.1,-119.019,-19.043,-32.959
-0.033,0.132,0.065,-145.813,-55.664,-66.406
0.085,0.04,0.029,-125.427,-52.002,-65.247
0.069,0.073,0.059,-57.19,-14.526,-41.809
-0.019,0.215,0.207,-28.625,5.737,-32.898
-0.05,0.249,0.296,-10.315,18.066,-36.865
0.007,0.184,0.405,-23.987,6.836,-47.485
0.089,0.129,0.438,-61.646,-26.001,-65.063
0.206,0.124,0.493,-62.317,-21.851,-57.861
0.191,0.178,0.501,-25.391,30.64,-14.648
0.256,-0.549,2.41,83.984,16.296,17.822
0.435,-0.606,2.7,88.44,67.871,2.625
0.551,-0.517,2.67,56.58,72.693,5.249
0.407,-0.463,2.638,-19.165,10.315,23.254
0.133,-0.564,2.769,-42.114,-3.479,21.24
0.159,-0.704,2.658,-76.538,34.058,7.568
0.379,-0.899,2.053,-96.985,43.213,7.324
0.444,-0.937,1.764,-130.188,15.32,23.315
0.432,-0.938,1.371,-135.986,1.038,34.973
0.384,-0.883,1.208,-132.935,-7.629,52.551
0.275,-0.624,0.848,-130.92,-13.977,54.382
0.186,-0.429,0.696,-163.879,-44.922,44.617
0.049,-0.128,0.448,-185.913,-71.045,31.433
0.024,-0.113,0.39,-197.327,-112.793,-4.639
0.065,-0.244,0.372,-181.091,-116.943,-20.325
0.103,-0.304,0.393,-117.493,-84.29,-34.424
0.17,-0.328,0.436,-85.754,-56.519,-31.189
0.152,-0.273,0.461,-53.65,-2.563,-10.437
0.02,-0.093,0.441,-67.81,10.254,-3.784
-0.027,-0.039,0.341,-130.615,-19.836,-18.127
0.023,-0.026,0.154,-139.221,-39.49,-32.471
0.071,-0.003,0.167,-96.008,-38.94,-44.495
0.109,0.037,0.326,-71.35,-21.484,-37.964
0.102,0.041,0.385,-57.434,17.395,-11.414
-0.013,0.095,0.403,-67.749,26.917,-2.869
-0.049,0.133,0.393,-100.708,0.488,-21.79
0.003,0.15,0.474,-110.291,-19.531,-35.706
0.052,0.131,0.514,-109.436,-25.391,-40.344
0.092,0.137,0.529,-83.923,4.944,-22.339
0.079,0.181,0.53,-67.566,25.818,-8.301
0.371,-0.675,2.208,46.204,16.174,5.371
0.447,-0.74,2.396,60.974,54.077,-9.094
0.624,-0.826,2.411,54.016,59.998,-8.911
0.493,-0.847,2.522,0.61,1.709,10.437
0.347,-0.819,2.603,-33.813,-31.25,16.968
0.143,-0.778,2.414,-80.566,-30.884,13.977
0.142,-0.766,2.183,-87.463,-11.902,10.925
0.199,-0.688,1.689,-99.426,12.451,16.968
0.196,-0.606,1.437,-111.389,20.752,26.245
0.167,-0.478,1.187,-145.752,18.677,43.701
0.082,-0.16,0.781,-167.725,-2.258,43.457
0.067,-0.045,0.644,-193.909,-46.631,25.879
0.12,0.015,0.444,-185.669,-52.002,15.686
0.171,-0.032,0.407,-128.967,-39.307,9.766
0.205,-0.136,0.466,-97.412,-30.823,14.343
0.166,-0.129,0.495,-56.702,-19.836,17.578
0.058,-0.032,0.568,-52.917,-20.203,10.498
0.021,0.009,0.591,-80.994,-36.255,-19.165
0.015,-0.009,0.533,-96.68,-43.518,-34.18
0.035,-0.038,0.475,-95.093,-41.199,-46.631
0.054,-0.067,0.427,-75.745,-30.273,-40.588
0.063,-0.075,0.441,-24.597,13.428,-10.498
0.03,-0.014,0.475,-17.456,30.762,0.366
-0.003,0.029,0.454,-73.425,11.414,-21.729
0.016,0.04,0.327,-108.765,-13.184,-43.518
0.059,0.02,0.269,-113.159,-36.56,-61.89
0.087,0.016,0.309,-85.083,-29.724,-53.894
0.065,0.039,0.376,-33.02,0.366,-31.311
0.027,0.111,0.478,-25.635,10.315,-27.1
0.02,0.151,0.505,-39.734,11.719,-32.837
0.268,-0.523,2.099,64.392,14.832,-15.015
0.283,-0.602,2.267,53.345,20.569,-10.071
0.319,-0.753,2.512,45.532,21.973,-5.981
0.46,-0.954,2.588,47.485,32.532,-5.92
0.476,-1.067,2.597,48.401,32.043,-2.563
0.337,-1.218,2.603,-0.122,-5.92,12.695
0.272,-1.246,2.505,-54.016,-25.818,20.386
0.201,-1.171,1.904,-152.893,-14.404,41.87
0.174,-1.085,1.505,-173.889,20.325,70.496
0.143,-0.84,0.928,-165.283,24.841,83.435
0.129,-0.674,0.779,-163.33,15.442,96.252
0.074,-0.288,0.599,-180.054,0.793,92.773
0.027,-0.133,0.528,-203.125,-18.433,83.74
-0.009,-0.008,0.34,-235.901,-50.964,56.824
0.024,-0.018,0.276,-231.506,-60.364,40.833
0.117,-0.117,0.254,-182.8,-54.81,20.325
0.131,-0.116,0.268,-148.01,-39.856,20.142
0.031,0.072,0.314,-77.332,2.014,28.076
-0.065,0.195,0.34,-60.608,13.55,23.804
-0.143,0.257,0.331,-110.474,-32.043,-31.555
-0.122,0.129,0.24,-148.376,-76.843,-70.313
0.048,-0.011,0.261,-142.7,-103.21,-106.689
0.094,-0.002,0.281,-107.605,-76.599,-96.619
0.07,0.04,0.34,-54.016,-12.085,-56.885
0.013,0.051,0.393,-50.11,7.019,-41.138
-0.046,0.067,0.411,-77.82,13.855,-38.33
-0.052,0.107,0.326,-93.201,2.075,-49.194
0.006,0.116,0.306,-83.496,-14.038,-60.73
0.094,0.131,0.351,-58.533,-3.235,-52.551
0.077,0.141,0.392,-10.62,34.363,-26.001
0.24,-0.599,2.049,102.295,25.94,-15.198
0.294,-0.717,2.167,99.548,10.498,-24.231
0.364,-1.043,2.305,99.304,-0.793,-27.588
0.41,-1.255,2.352,109.985,-8.179,-31.25
0.456,-1.594,2.453,106.873,-8.972,-26.855
0.452,-1.658,2.474,44.617,-12.39,0.122
0.376,-1.641,2.302,-12.878,-6.836,20.935
0.296,-1.598,2.046,-119.507,28.87,62.805
0.159,-1.399,1.414,-146.667,44.434,81.055
0.124,-1.232,1.176,-176.025,41.626,109.375
0.092,-0.817,0.925,-192.566,28.687,114.807
0.078,-0.616,0.845,-234.253,-2.991,105.408
-0.003,-0.27,0.72,-253.418,-18.555,94.727
-0.045,-0.14,0.678,-274.17,-33.875,70.435
-0.025,-0.018,0.566,-277.1,-36.804,56.335
0.034,-0.017,0.496,-264.832,-37.964,30.273
0.156,-0.065,0.395,-244.995,-29.114,24.841
0.157,-0.043,0.371,-187.195,11.047,37.292
-0.035,0.164,0.293,-168.213,28.748,39.856
-0.138,0.221,0.199,-189.575,-1.892,-11.292
-0.11,0.098,0.041,-207.764,-40.955,-53.406
-0.015,0.007,-0.002,-208.435,-70.251,-86.365
0.142,-0.049,-0.026,-154.968,-71.899,-99.792
0.165,-0.022,-0.019,-90.759,-33.142,-72.388
0.138,0.034,0.019,-68.237,-14.16,-58.167
0.122,0.064,0.064,-54.016,2.197,-44.067
0.085,0.168,0.119,-63.293,-3.723,-46.265
0.075,0.207,0.122,-77.82,-27.283,-59.753
0.084,0.208,0.164,-70.435,-32.654,-62.012
0.095,0.206,0.207,-35.828,-24.536,-52.856
0.202,-0.456,1.948,29.175,33.02,-13.977
0.239,-0.522,2.017,48.157,37.659,-25.513
0.296,-0.727,2.266,53.345,37.842,-24.048
0.433,-1.03,2.606,37.415,49.622,-7.202
0.497,-1.148,2.652,13.062,69.214,9.338
0.558,-1.25,2.266,-69.702,89.111,38.33
0.578,-1.25,2.033,-116.333,63.171,42.48
0.585,-1.218,1.855,-176.331,1.465,41.199
0.491,-1.104,1.57,-184.265,-6.653,48.401
0.403,-1.026,1.429,-182.251,9.521,73.059
0.288,-0.836,1.155,-182.434,22.4,85.449
0.264,-0.703,1.005,-193.848,36.316,102.234
0.217,-0.395,0.646,-210.449,23.682,97.046
0.18,-0.265,0.475,-253.662,-42.908,59.998
0.104,-0.13,0.359,-255.798,-69.275,40.466
0.103,-0.122,0.346,-209.961,-59.998,18.982
0.103,-0.051,0.208,-178.101,-39.978,16.052
0.05,0.041,0.13,-137.39,-21.484,5.005
-0.071,0.166,0.039,-132.629,-27.588,-11.108
-0.073,0.157,-0.003,-134.521,-57.312,-56.458
0.018,0.053,-0.063,-129.578,-72.388,-75.989
0.076,-0.016,-0.064,-91.064,-69.397,-85.205
0.162,-0.048,0,-62.744,-49.622,-74.768
0.173,-0.012,0.033,-19.409,-3.479,-45.105
0.097,0.097,0.086,-17.578,4.15,-37.781
0.056,0.139,0.117,-53.528,-30.457,-57.129
0.073,0.143,0.211,-69.58,-54.382,-73.12
0.113,0.123,0.273,-63.721,-63.782,-80.566
0.176,0.143,0.401,-47.485,-49.683,-70.557
0.19,0.179,0.459,-16.357,-14.954,-40.222
0.477,-0.453,1.919,30.457,70.557,5.249
0.569,-0.458,2.009,2.686,85.022,18.555
0.576,-0.45,2.231,-16.663,68.604,28.259
0.535,-0.461,2.452,-42.847,36.377,33.813
0.554,-0.548,2.78,-48.767,46.814,29.663
0.622,-0.621,2.72,-55.054,80.444,20.386
0.707,-0.77,2.464,-70.129,67.566,23.682
0.677,-0.811,2.358,-135.437,-2.625,37.842
0.47,-0.757,2.065,-166.077,-25.452,44.25
0.384,-0.69,1.838,-190.063,-12.634,65.308
0.298,-0.492,1.266,-188.171,12.634,86.121
0.233,-0.335,0.975,-180.054,60.242,126.709
0.132,-0.021,0.418,-197.083,46.082,121.704
0.142,0.027,0.224,-247.131,-58.044,62.134
0.265,-0.098,0.11,-245.178,-94.971,35.461
0.294,-0.185,0.085,-175.049,-87.708,21.484
0.258,-0.204,0.033,-122.009,-62.866,27.832
0.172,-0.103,0.064,-52.856,-28.198,37.17
-0.038,0.161,0.143,-67.444,-43.518,19.226
-0.081,0.209,0.148,-143.311,-121.46,-51.453
-0.021,0.081,0.104,-155.396,-142.212,-75.745
0.008,0.002,0.103,-107.849,-125.671,-76.904
0,0.003,0.173,-70.129,-101.685,-65.186
-0.017,0.077,0.216,-10.864,-44.189,-42.542
-0.039,0.192,0.274,-5.92,-28.87,-42.419
-0.017,0.177,0.301,-52.124,-57.251,-69.641
0.106,0.086,0.378,-75.684,-74.28,-78.979
0.161,0.077,0.392,-69.519,-47.729,-54.565
0.142,0.168,0.363,-44.8,-13.489,-29.175
0.105,0.245,0.364,4.822,36.377,5.432
0.228,-0.661,1.885,35.706,15.015,2.441
0.28,-0.757,1.988,39.856,24.048,0.977
0.409,-0.896,2.113,36.621,23.132,3.54
0.429,-0.95,2.176,29.175,12.756,14.465
0.382,-1.104,2.352,26.001,13.489,22.339
0.347,-1.159,2.389,4.517,35.583,43.457
0.331,-1.193,2.224,-21.484,46.143,53.589
0.32,-1.167,2.047,-102.844,30.09,65.735
0.25,-1.048,1.712,-146.179,9.216,63.782
0.232,-0.98,1.564,-203.186,-6.653,62.988
0.229,-0.755,1.248,-211.487,4.333,71.106
0.214,-0.587,1.096,-218.201,24.536,84.045
0.14,-0.282,0.822,-235.657,10.132,74.28
0.129,-0.187,0.726,-267.273,-38.757,36.621
0.171,-0.146,0.592,-261.414,-41.382,28.931
0.156,-0.154,0.488,-209.229,-2.686,40.71
-0.013,-0.039,0.275,-177.185,13.977,43.152
-0.099,0.041,0.22,-155.09,-0.977,5.127
-0.124,0.038,0.131,-163.635,-23.621,-28.931
-0.05,-0.047,0.06,-170.471,-55.847,-82.397
0.162,-0.215,-0.051,-158.691,-58.228,-88.318
0.235,-0.247,-0.08,-116.882,-31.494,-58.044
0.191,-0.158,-0.099,-94.727,-10.01,-34.485
0.104,-0.074,-0.081,-71.045,9.521,-14.709
0.004,0.058,-0.015,-74.158,-3.662,-25.635
0.031,0.087,0.032,-82.703,-45.166,-62.378
0.12,0.095,0.116,-77.026,-53.955,-71.167
0.144,0.099,0.143,-41.504,-37.842,-63.232
0.156,0.157,0.252,-20.081,-24.902,-53.284
0.155,0.201,0.333,4.456,-6.775,-34.912
0.363,-0.584,1.997,91.37,33.325,-11.841
0.411,-0.701,2.214,103.577,11.108,-11.78
0.422,-0.902,2.748,98.328,5.432,-6.042
0.394,-0.973,2.947,30.457,7.446,10.986
0.262,-1.077,2.834,-29.907,8.545,16.602
0.217,-1.125,2.551,-121.948,7.141,22.4
0.19,-1.116,1.998,-138.367,10.01,27.283
0.191,-1.049,1.76,-151.611,29.724,49.072
0.181,-0.842,1.311,-165.894,36.072,60.486
0.172,-0.699,1.084,-227.417,11.108,55.42
0.175,-0.429,0.652,-260.864,-17.273,37.842
0.191,-0.346,0.496,-274.719,-50.354,7.629
0.236,-0.3,0.314,-254.089,-45.166,7.507
0.228,-0.289,0.242,-184.204,-11.475,27.588
0.153,-0.143,0.153,-141.602,9.583,36.316
0.072,-0.014,0.161,-105.041,20.813,28.992
-0.106,0.149,0.163,-126.282,-4.578,4.822
-0.128,0.138,0.144,-166.443,-68.481,-56.824
-0.031,0.046,0.15,-157.532,-79.651,-74.585
0.012,0.027,0.161,-102.356,-55.237,-74.951
0.018,0.046,0.14,-70.923,-29.663,-66.467
0.012,0.049,0.149,-29.48,10.376,-53.04
0.042,0.024,0.294,-33.63,13.428,-52.49
0.07,0.023,0.36,-78.43,2.319,-53.589
0.125,0.039,0.31,-93.567,2.258,-50.598
0.13,0.062,0.251,-80.078,8.179,-32.471
0.081,0.118,0.23,-55.054,14.771,-24.109
0.075,0.138,0.298,-4.517,27.283,-21.973
0.099,0.235,0.51,1.16,26.428,-24.475
0.119,0.281,0.559,-21.667,18.066,-29.968
0.312,-0.588,2.003,44.25,-3.723,-4.395
0.361,-0.647,2.202,47.119,-5.127,-6.104
0.504,-0.748,2.537,45.349,2.197,-3.784
0.552,-0.823,2.684,12.878,11.963,16.357
0.379,-0.908,2.906,-21.606,9.521,31.738
0.232,-0.893,2.896,-96.008,15.625,43.396
0.177,-0.905,2.512,-131.653,21.667,37.231
0.219,-0.933,2.215,-196.472,16.235,30.273
0.291,-0.952,1.651,-212.646,17.517,35.034
0.32,-0.925,1.397,-208.252,43.03,59.326
0.331,-0.743,0.935,-207.153,53.406,73.059
0.304,-0.623,0.733,-240.906,22.644,77.881
0.215,-0.421,0.462,-261.414,-9.277,68.298
0.189,-0.353,0.367,-256.104,-37.598,47.119
0.181,-0.246,0.161,-231.75,-29.297,43.335
0.159,-0.175,0.059,-168.213,-2.441,44.006
0.065,-0.001,-0.058,-143.738,0.366,39.307
0.005,0.091,-0.057,-130.127,-35.706,10.376
-0.068,0.212,-0.004,-132.69,-57.129,-10.01
-0.063,0.219,0.001,-133.606,-83.74,-47.424
-0.022,0.149,0.015,-127.319,-88.318,-60.242
-0.003,0.115,0.043,-101.196,-78.43,-71.228
0.037,0.169,0.109,-88.44,-69.458,-71.533
0.049,0.227,0.121,-74.707,-59.448,-68.604
0.045,0.249,0.16,-71.228,-60.181,-67.139
0.051,0.232,0.21,-61.035,-64.392,-65.552
0.062,0.24,0.342,-51.88,-62.134,-62.866
0.046,0.263,0.408,-28.137,-41.87,-49.316
0.035,0.293,0.494,-16.418,-26.367,-41.992
0.047,0.299,0.52,-1.587,-1.77,-28.625
0.175,-0.408,2.036,80.444,2.991,11.353
0.124,-0.408,2.168,56.03,16.479,-5.005
0.218,-0.566,2.202,52.307,26.367,-15.259
0.304,-0.68,2.197,49.194,22.766,-15.381
0.338,-0.91,2.28,34.363,5.798,-7.507
0.285,-1.011,2.335,-4.456,-19.165,7.751
0.222,-1.198,2.295,-22.888,-12.634,14.099
0.228,-1.241,2.161,-71.533,21.667,34.302
0.227,-1.095,1.686,-98.633,36.438,51.392
0.187,-0.961,1.43,-131.836,53.894,91.98
0.089,-0.67,1.053,-137.512,58.594,108.582
0.062,-0.504,0.92,-158.997,49.683,114.685
0.05,-0.166,0.681,-183.533,29.175,100.769
0.054,-0.054,0.574,-238.77,-22.827,54.016
0.113,-0.049,0.414,-252.747,-39.246,32.837
0.162,-0.114,0.365,-238.77,-39.734,17.639
0.185,-0.136,0.271,-214.661,-26.672,22.4
0.137,-0.058,0.221,-154.602,5.92,31.067
-0.008,0.122,0.158,-136.169,8.85,23.682
-0.066,0.17,0.162,-132.263,-20.752,-19.897
-0.035,0.105,0.193,-135.132,-40.161,-47.18
0.043,0.022,0.199,-131.47,-60.852,-79.956
0.195,-0.113,0.193,-123.047,-56.946,-77.026
0.226,-0.115,0.191,-92.285,-24.17,-42.419
0.184,-0.03,0.183,-72.571,-0.977,-21.851
0.136,0.031,0.176,-46.875,23.987,-3.479
0.065,0.143,0.208,-48.767,13.245,-10.925
0.066,0.178,0.242,-62.622,-29.114,-40.894
0.124,0.207,0.34,-60.303,-39.49,-48.95
0.151,0.218,0.387,-38.391,-28.625,-37.903
0.185,-0.551,1.996,54.81,29.175,-0.61
0.194,-0.594,2.095,66.467,37.659,-14.587
0.32,-0.784,2.152,76.111,44.861,-22.583
0.403,-0.934,2.144,91.675,49.438,-22.4
0.469,-1.183,2.115,86.792,36.682,-13.123
0.435,-1.256,2.114,46.57,-4.395,12.939
0.376,-1.319,2.037,18.311,-11.597,25.024
0.37,-1.293,1.892,-45.044,3.723,43.762
0.345,-1.142,1.51,-81.055,6.409,52.185
0.31,-1.032,1.351,-155.029,-8.179,64.941
0.253,-0.806,1.11,-187.744,-15.198,67.322
0.239,-0.695,0.999,-236.572,-16.235,68.604
0.192,-0.424,0.768,-251.953,-10.681,70.007
0.157,-0.278,0.641,-275.879,1.587,67.2
0.106,-0.081,0.332,-288.452,-5.31,54.626
0.106,-0.067,0.209,-289.978,-43.64,13.245
0.179,-0.11,0.134,-268.433,-55.054,-4.517
0.209,-0.097,0.137,-204.407,-48.096,-20.142
0.176,-0.008,0.126,-173.462,-38.269,-20.386
0.138,0.037,0.128,-116.028,-17.639,-15.076
0.077,0.102,0.149,-92.346,-7.385,-13.794
0.053,0.112,0.154,-77.82,-11.658,-26.062
0.023,0.095,0.178,-84.106,-27.1,-38.513
0.038,0.089,0.2,-92.59,-51.208,-59.998
0.092,0.086,0.23,-87.097,-50.659,-62.195
0.106,0.081,0.233,-59.57,-28.381,-50.049
0.119,0.108,0.257,-43.396,-15.381,-40.283
0.113,0.135,0.287,-15.015,5.676,-20.447
0.057,0.205,0.361,-4.456,14.648,-13.367
0.03,0.248,0.402,1.404,18.799,-14.526
