aX,aY,aZ,gX,gY,gZ
-0.041,0.958,-0.107,-88.379,46.204,20.569
-0.069,0.963,-0.161,-79.041,43.823,17.212
-0.067,0.977,-0.119,-65.674,37.781,14.954
-0.058,0.975,-0.122,-65.002,37.903,15.503
-0.053,0.975,-0.139,-69.092,40.283,20.508
-0.077,1.005,-0.214,-69.397,39.551,21.240
-0.076,1.018,-0.234,-59.448,30.518,13.489
-0.062,1.040,-0.193,-52.002,25.574,9.216
-0.052,1.052,-0.139,-47.607,22.827,4.333
-0.028,1.047,-0.144,-51.819,24.780,4.150
-0.023,1.046,-0.208,-55.115,22.766,4.089
-0.012,1.055,-0.256,-47.607,17.517,1.465
-0.005,1.062,-0.198,-29.175,17.090,-7.080
0.000,1.048,-0.167,-27.832,21.545,-9.277
-0.009,1.051,-0.190,-32.776,19.958,-7.446
-0.029,1.059,-0.244,-31.799,16.907,-8.606
-0.030,1.042,-0.258,-23.254,10.498,-12.573
-0.029,1.021,-0.255,-20.081,8.789,-13.000
-0.031,1.010,-0.278,-12.634,6.775,-13.611
-0.054,1.005,-0.282,-7.568,3.296,-13.000
-0.061,1.005,-0.262,-1.709,-3.601,-11.597
-0.064,0.989,-0.255,-0.854,-5.676,-10.620
-0.070,0.981,-0.256,1.709,-9.399,-9.033
-0.059,0.970,-0.255,4.456,-10.925,-8.972
-0.055,0.983,-0.222,12.146,-15.381,-5.920
-0.066,0.995,-0.181,14.343,-16.357,-4.639
-0.039,0.975,-0.146,10.071,-11.353,-7.080
-0.020,0.964,-0.159,5.371,-8.911,-5.737
-0.019,0.972,-0.182,0.610,-8.484,1.160
-0.026,0.982,-0.174,2.197,-8.911,1.831
0.005,1.026,-0.219,-27.954,12.268,1.465
-0.004,1.006,-0.201,-26.672,11.963,2.930
-0.018,1.000,-0.212,-27.405,12.695,4.517
-0.025,0.977,-0.255,-25.879,14.160,4.700
-0.036,0.974,-0.253,-22.888,13.428,5.859
-0.062,0.980,-0.211,-23.682,15.198,6.104
-0.076,0.981,-0.225,-26.550,18.372,6.348
-0.087,0.984,-0.270,-30.945,18.799,8.057
-0.086,0.987,-0.260,-29.724,16.418,8.972
-0.085,0.990,-0.245,-25.757,14.648,9.033
-0.092,1.002,-0.245,-24.048,13.367,8.362
-0.089,1.003,-0.234,-20.935,7.751,4.517
-0.062,0.972,-0.226,-19.226,6.592,2.319
-0.054,0.961,-0.221,-15.625,6.775,1.709
-0.053,0.953,-0.230,-14.099,6.775,2.136
-0.053,0.947,-0.242,-9.888,4.517,2.136
-0.053,0.925,-0.275,-6.470,1.831,1.953
-0.059,0.922,-0.273,2.930,-4.150,1.587
-0.085,0.928,-0.236,6.287,-4.944,0.427
-0.088,0.923,-0.232,7.385,-3.174,-2.991
-0.085,0.909,-0.248,7.141,-2.502,-3.052
-0.086,0.918,-0.241,6.287,-2.380,-0.977
-0.076,0.933,-0.239,5.371,-2.258,-0.854
-0.066,0.935,-0.248,6.287,-3.418,-0.122
-0.056,0.955,-0.234,7.751,-4.028,0.427
-0.060,0.966,-0.226,8.728,-3.662,0.122
-0.046,0.969,-0.217,8.850,-1.831,-2.441
-0.036,0.964,-0.215,8.118,-1.099,-2.747
-0.033,0.965,-0.216,6.042,-0.305,-0.305
-0.036,0.972,-0.221,5.249,-0.244,0.977
0.035,0.823,-0.200,-66.956,44.312,11.597
0.026,0.848,-0.215,-58.411,35.706,17.151
0.027,0.886,-0.166,-51.208,33.020,17.151
0.051,0.891,-0.149,-46.570,36.987,16.846
0.062,0.889,-0.204,-48.401,37.415,19.592
0.041,0.934,-0.260,-41.321,29.602,27.344
0.023,0.970,-0.232,-33.386,26.184,28.381
0.009,1.002,-0.210,-20.935,28.198,24.597
-0.012,1.033,-0.245,-16.418,28.137,22.583
-0.024,1.049,-0.240,-6.531,20.386,18.860
-0.033,1.069,-0.175,-2.747,17.700,15.625
-0.014,1.062,-0.156,-1.953,19.226,8.972
-0.008,1.036,-0.188,-3.967,19.714,9.705
-0.024,1.041,-0.206,-4.883,16.052,14.160
-0.055,1.045,-0.265,-2.075,14.465,14.343
-0.078,1.054,-0.285,6.531,7.019,13.550
-0.114,1.079,-0.249,10.193,1.953,11.536
-0.114,1.087,-0.208,10.071,-3.601,6.897
-0.094,1.092,-0.182,6.836,-3.296,5.310
-0.085,1.091,-0.189,3.052,-3.052,4.395
-0.079,1.085,-0.178,3.052,-3.845,3.662
-0.076,1.074,-0.178,2.869,-5.127,2.441
-0.069,1.037,-0.189,3.052,-9.277,-0.977
-0.061,1.014,-0.180,4.700,-10.925,-3.296
-0.030,0.982,-0.146,5.188,-11.230,-4.639
-0.018,0.972,-0.142,2.991,-9.705,-3.540
-0.012,0.967,-0.137,-0.610,-5.798,0.244
-0.022,0.973,-0.154,-1.709,-3.601,1.465
-0.032,0.973,-0.183,0.854,-0.854,0.549
-0.043,0.976,-0.194,3.662,-1.770,0.427
-0.099,0.990,-0.119,-9.399,18.616,16.968
-0.097,1.010,-0.112,-9.216,16.052,15.259
-0.097,1.016,-0.119,-8.240,12.207,11.597
-0.110,1.023,-0.149,-6.409,10.193,9.094
-0.103,1.020,-0.161,0.977,5.005,3.235
-0.081,1.037,-0.128,4.517,1.709,2.136
-0.079,1.060,-0.082,4.578,0.366,-1.526
-0.045,1.072,-0.054,1.343,2.747,-4.456
-0.028,1.075,-0.051,-6.104,4.028,-3.174
-0.028,1.093,-0.039,-9.949,4.089,-1.709
-0.029,1.082,-0.060,-13.184,6.165,-2.869
-0.034,1.052,-0.073,-12.268,6.714,-3.540
-0.040,1.041,-0.079,-12.573,6.348,-1.709
-0.077,1.027,-0.110,-11.597,6.165,-1.404
-0.089,1.016,-0.109,-6.042,8.545,-5.432
-0.088,0.994,-0.093,-5.920,8.179,-5.188
-0.093,0.989,-0.086,-8.362,5.066,-2.258
-0.089,0.972,-0.079,-8.240,4.333,-2.380
-0.080,0.968,-0.067,-6.165,3.296,-2.014
-0.073,0.960,-0.053,-4.578,4.333,-2.625
-0.063,0.944,-0.061,0.061,6.165,-3.479
-0.050,0.941,-0.036,2.258,5.432,-1.160
-0.056,0.956,-0.020,2.197,5.005,2.563
-0.071,0.966,-0.043,3.357,6.653,1.831
-0.078,0.973,-0.043,7.629,8.362,1.160
-0.089,0.989,-0.060,7.629,7.568,2.563
-0.103,1.001,-0.074,7.874,6.042,4.089
-0.127,1.024,-0.066,11.353,2.136,2.930
-0.124,1.024,-0.055,12.146,0.916,0.488
-0.100,1.018,-0.051,9.766,-0.854,-2.563
-0.014,1.015,0.052,-25.696,12.146,11.780
-0.032,1.025,0.026,-25.391,12.634,12.390
-0.031,1.023,0.015,-24.536,11.780,13.611
-0.042,1.026,-0.002,-24.353,10.620,14.771
-0.058,1.032,-0.019,-21.545,6.958,14.465
-0.081,1.035,-0.032,-18.921,5.554,11.841
-0.080,1.021,-0.041,-15.564,2.136,7.446
-0.073,1.002,-0.057,-14.893,-1.648,7.690
-0.070,1.004,-0.050,-10.437,-6.470,7.690
-0.073,1.012,-0.027,-7.874,-6.409,6.348
-0.070,1.013,-0.013,-7.263,-5.249,2.991
-0.052,1.008,-0.011,-8.606,-5.249,2.441
-0.051,1.014,-0.010,-9.888,-6.348,1.953
-0.049,1.016,0.000,-9.521,-6.042,0.000
-0.036,1.004,0.000,-9.155,-4.211,-1.953
-0.025,0.995,0.014,-10.925,-4.028,0.122
-0.035,1.002,0.012,-15.930,-2.258,2.014
-0.038,0.991,-0.018,-16.296,-0.244,0.183
-0.026,0.978,-0.030,-13.977,1.648,0.000
-0.033,0.978,-0.040,-11.719,2.075,1.831
-0.049,0.983,-0.043,-7.507,1.282,2.625
-0.056,0.985,-0.025,-7.568,-0.671,2.319
-0.054,0.989,-0.010,-12.024,-2.258,3.174
-0.058,0.988,-0.030,-13.672,0.061,2.808
-0.057,0.980,-0.062,-10.986,4.150,2.258
-0.072,0.984,-0.081,-7.812,3.418,3.418
-0.085,0.992,-0.085,-3.174,-1.465,3.418
-0.093,0.997,-0.077,-1.282,-4.761,1.892
-0.089,0.999,-0.049,0.488,-6.042,-1.709
-0.061,0.989,-0.025,-0.977,-4.150,-2.197
-0.004,0.932,-0.013,-124.451,44.006,18.372
-0.007,0.943,-0.056,-110.474,32.227,22.034
-0.016,0.962,-0.041,-102.478,27.588,23.254
-0.014,0.977,-0.036,-91.919,25.330,19.958
-0.012,0.978,-0.042,-89.172,25.635,18.066
-0.014,0.985,-0.042,-88.135,25.574,17.334
-0.007,0.986,-0.042,-89.111,25.696,17.029
-0.005,0.982,-0.047,-93.567,27.344,18.433
-0.000,0.974,-0.107,-97.229,25.879,20.935
-0.002,0.978,-0.156,-96.252,18.860,26.184
-0.034,0.998,-0.196,-90.515,16.174,25.391
-0.048,0.992,-0.229,-77.576,15.015,16.174
-0.055,0.965,-0.262,-70.862,13.916,12.024
-0.052,0.959,-0.255,-64.026,12.085,8.667
-0.066,0.940,-0.271,-62.927,12.878,8.606
-0.072,0.924,-0.295,-61.035,13.428,9.216
-0.087,0.908,-0.371,-58.716,10.315,10.742
-0.093,0.911,-0.370,-48.645,2.441,9.766
-0.074,0.899,-0.351,-43.213,2.563,7.507
-0.060,0.896,-0.353,-35.645,2.075,8.972
-0.059,0.917,-0.335,-32.410,1.343,11.047
-0.062,0.924,-0.323,-30.273,2.014,12.878
-0.069,0.917,-0.375,-29.907,2.747,13.184
-0.082,0.913,-0.412,-26.978,2.380,12.268
-0.088,0.912,-0.403,-15.686,-3.113,8.057
-0.084,0.913,-0.399,-11.414,-5.066,6.836
-0.075,0.909,-0.423,-5.005,-6.226,5.554
-0.074,0.912,-0.433,-1.221,-7.751,5.798
-0.082,0.941,-0.377,7.690,-11.414,5.066
-0.080,0.940,-0.368,8.362,-11.658,3.601
-0.109,0.944,-0.288,-4.944,1.160,-0.244
-0.097,0.939,-0.291,-3.723,-1.160,-1.343
-0.095,0.941,-0.286,-2.563,-1.526,-1.404
-0.090,0.938,-0.274,-1.526,-0.366,-2.136
-0.090,0.937,-0.271,-1.953,0.488,-2.258
-0.095,0.934,-0.287,-4.395,1.282,-1.709
-0.092,0.932,-0.292,-5.005,0.732,-1.526
-0.088,0.941,-0.281,-4.456,0.488,-1.343
-0.088,0.939,-0.289,-3.723,1.648,-2.197
-0.089,0.932,-0.299,-0.732,3.296,-4.456
-0.087,0.921,-0.300,0.488,2.563,-4.395
-0.088,0.928,-0.283,0.549,0.854,-1.587
-0.094,0.946,-0.276,-0.610,0.854,-0.549
-0.097,0.950,-0.284,-1.587,0.732,-0.488
-0.100,0.952,-0.290,-0.793,0.732,-1.404
-0.096,0.950,-0.291,1.465,1.038,-3.174
-0.089,0.945,-0.293,2.136,0.366,-2.869
-0.090,0.944,-0.291,2.869,-1.953,-1.465
-0.091,0.944,-0.267,2.686,-2.563,-1.038
-0.090,0.948,-0.261,-0.366,-1.404,-0.671
-0.086,0.952,-0.276,-1.343,-0.549,-0.671
-0.089,0.956,-0.279,-0.854,0.122,-1.770
-0.087,0.949,-0.284,-0.427,0.427,-3.174
-0.082,0.942,-0.285,-0.488,0.122,-3.113
-0.084,0.946,-0.276,-1.282,-0.183,-1.770
-0.089,0.949,-0.281,-1.465,0.488,-2.197
-0.089,0.943,-0.289,-0.427,0.916,-3.662
-0.084,0.938,-0.288,0.671,0.793,-4.395
-0.082,0.936,-0.289,0.244,0.549,-3.540
-0.084,0.938,-0.296,-0.305,-0.061,-2.014
-0.133,1.011,-0.273,-4.822,12.512,1.587
-0.109,1.000,-0.280,-3.601,11.536,0.244
-0.103,0.999,-0.270,1.587,8.850,-3.845
-0.074,0.976,-0.234,3.601,7.202,-6.226
-0.057,0.959,-0.219,4.944,7.996,-8.179
-0.059,0.943,-0.223,5.005,9.583,-7.141
-0.079,0.941,-0.236,5.371,12.207,-3.357
-0.130,0.956,-0.253,4.944,12.268,-1.770
-0.145,0.966,-0.268,3.906,9.216,-1.160
-0.177,0.976,-0.296,6.104,7.507,-2.991
-0.181,0.971,-0.296,9.888,6.104,-6.042
-0.167,0.974,-0.280,15.503,3.601,-8.728
-0.169,0.986,-0.274,15.625,1.404,-7.446
-0.175,1.000,-0.258,13.733,-2.380,-6.836
-0.165,1.011,-0.240,11.902,-2.686,-8.423
-0.141,1.006,-0.240,8.484,-2.441,-8.423
-0.116,1.017,-0.244,6.592,-3.601,-4.761
-0.128,1.041,-0.241,6.104,-5.981,-2.808
-0.130,1.044,-0.224,8.240,-5.493,-6.775
-0.113,1.028,-0.206,6.775,-4.578,-10.315
-0.083,1.017,-0.190,3.113,-4.272,-8.057
-0.079,1.025,-0.182,-2.869,-2.563,-3.113
-0.080,1.021,-0.190,-4.333,-0.732,-2.930
-0.081,1.005,-0.204,-4.395,1.953,-3.540
-0.098,0.981,-0.225,-3.296,2.563,-3.845
-0.105,0.973,-0.229,-0.244,2.258,-5.005
-0.110,0.967,-0.201,0.366,1.160,-4.700
-0.109,0.968,-0.189,-2.930,0.122,-3.235
-0.101,0.956,-0.208,-4.272,0.427,-2.991
-0.100,0.955,-0.218,-1.465,0.427,-3.784
0.007,0.895,-0.211,-20.935,16.663,5.737
-0.007,0.912,-0.224,-16.846,17.273,13.916
-0.055,0.962,-0.280,-14.282,17.517,14.526
-0.059,0.974,-0.303,-4.700,12.817,10.376
-0.046,1.032,-0.243,1.526,10.803,7.812
-0.039,1.063,-0.207,3.662,10.315,2.686
-0.021,1.078,-0.205,2.014,10.559,1.221
-0.017,1.083,-0.200,-1.587,8.972,2.441
-0.026,1.109,-0.193,-4.211,7.874,3.357
-0.037,1.112,-0.214,-4.395,7.874,-1.892
-0.039,1.073,-0.240,0.000,7.996,-6.775
-0.028,1.061,-0.198,2.869,5.737,-8.545
-0.012,1.050,-0.155,-1.709,5.798,-6.165
-0.017,1.048,-0.176,-8.484,8.057,-3.418
-0.041,1.024,-0.228,-8.179,8.484,-4.578
-0.050,0.999,-0.244,-6.104,7.935,-6.287
-0.055,0.975,-0.238,-1.160,5.981,-7.080
-0.060,0.975,-0.234,0.305,4.761,-5.798
-0.063,0.975,-0.207,2.258,2.197,-4.211
-0.058,0.975,-0.197,1.892,1.892,-3.845
-0.054,0.978,-0.199,-0.610,2.686,-2.197
-0.050,0.982,-0.197,-0.977,3.174,-1.587
-0.046,0.989,-0.193,-0.549,2.747,-0.427
-0.045,1.001,-0.202,0.488,2.014,-1.038
-0.028,0.997,-0.182,4.028,0.122,-3.174
-0.025,0.997,-0.165,4.456,-0.244,-2.808
-0.023,0.998,-0.153,0.793,0.061,-0.793
-0.014,1.012,-0.159,-1.404,1.099,-0.732
-0.019,1.012,-0.168,-3.662,5.005,-5.554
-0.012,0.974,-0.210,-1.160,3.906,-6.165
-0.069,1.039,-0.091,-33.875,24.109,16.968
-0.075,1.039,-0.126,-32.349,24.780,13.000
-0.081,1.036,-0.136,-30.823,24.597,11.230
-0.076,1.005,-0.197,-27.100,24.719,6.653
-0.078,0.998,-0.223,-22.522,22.583,4.822
-0.087,0.990,-0.202,-6.409,18.250,-2.197
-0.081,0.985,-0.165,-0.610,17.151,-6.165
-0.061,0.979,-0.139,-1.831,16.846,-7.202
-0.069,0.992,-0.150,-5.432,17.029,-3.540
-0.120,1.023,-0.221,-9.094,14.771,2.075
-0.139,1.030,-0.252,-4.761,11.963,0.549
-0.155,1.033,-0.220,9.705,2.808,-6.287
-0.147,1.029,-0.177,14.282,-0.610,-9.705
-0.114,1.034,-0.107,13.489,-4.272,-11.230
-0.101,1.045,-0.093,10.071,-4.517,-10.010
-0.088,1.049,-0.098,4.761,-3.052,-8.789
-0.069,1.034,-0.111,4.578,-2.075,-7.874
-0.077,1.036,-0.112,4.456,-1.831,-5.676
-0.090,1.047,-0.102,4.639,-2.380,-6.653
-0.080,1.039,-0.081,2.441,-2.747,-8.423
-0.052,1.032,-0.047,-2.563,-2.930,-6.104
-0.047,1.030,-0.068,-8.240,0.366,-2.930
-0.052,1.022,-0.102,-5.493,2.319,-4.089
-0.049,1.016,-0.089,0.122,3.113,-7.690
-0.041,0.988,-0.079,0.366,3.540,-8.484
-0.042,0.974,-0.090,0.000,3.601,-7.324
-0.050,0.966,-0.092,0.549,3.052,-5.859
-0.058,0.969,-0.080,0.366,3.845,-4.395
-0.069,0.973,-0.091,-0.427,4.639,-4.822
-0.070,0.971,-0.100,0.427,4.211,-5.737
-0.056,1.028,-0.160,-56.763,23.926,14.709
-0.052,1.028,-0.178,-43.030,20.874,4.395
-0.027,1.013,-0.184,-36.194,19.104,-0.427
-0.008,1.001,-0.177,-25.879,14.709,-4.578
0.017,0.996,-0.140,-23.926,12.146,-3.601
0.023,0.997,-0.131,-24.170,10.742,-2.075
0.030,0.988,-0.156,-23.437,11.536,-2.930
0.025,0.980,-0.171,-15.381,12.573,-6.226
0.010,0.970,-0.199,-10.193,12.329,-7.935
-0.003,0.970,-0.213,1.831,9.888,-11.292
-0.015,0.964,-0.210,7.446,7.080,-11.353
-0.029,0.973,-0.190,10.193,0.122,-5.066
-0.072,1.010,-0.139,8.057,-0.427,-4.517
-0.074,1.008,-0.158,3.845,3.723,-10.193
-0.057,0.994,-0.206,4.028,2.808,-10.437
-0.053,0.997,-0.208,8.972,-0.854,-8.423
-0.028,0.985,-0.189,12.573,-1.526,-7.812
-0.026,0.983,-0.172,15.991,-2.563,-6.470
-0.018,0.979,-0.152,16.418,-2.930,-6.958
0.001,0.975,-0.134,14.465,-3.601,-6.226
0.033,0.974,-0.123,12.451,-2.625,-4.211
0.042,0.979,-0.126,11.963,-0.732,0.061
0.047,0.996,-0.094,12.634,0.061,1.648
0.044,1.000,-0.089,11.536,3.357,2.441
0.027,1.000,-0.111,12.024,5.493,1.526
0.016,1.003,-0.108,13.184,7.141,-0.244
-0.002,1.018,-0.101,12.024,7.141,-0.427
-0.011,1.025,-0.109,10.071,6.042,-0.183
-0.026,1.040,-0.112,9.766,4.272,0.427
-0.031,1.045,-0.105,8.240,1.892,-0.122
-0.060,0.975,-0.223,-12.756,18.005,0.305
-0.071,0.969,-0.237,-1.465,10.620,-1.221
-0.071,0.964,-0.216,3.052,4.700,-2.808
-0.059,0.958,-0.199,9.949,2.380,-7.996
-0.025,0.957,-0.178,11.475,5.066,-9.277
-0.010,0.967,-0.169,8.728,6.714,-5.249
-0.003,0.997,-0.146,5.737,5.676,-2.197
-0.001,1.004,-0.148,4.028,6.042,-2.197
0.015,0.999,-0.172,5.249,6.042,-2.869
0.017,1.002,-0.171,6.592,3.479,-1.099
0.008,1.016,-0.159,6.653,3.174,-0.610
0.005,1.020,-0.162,7.874,6.042,-3.479
0.011,1.005,-0.190,9.766,7.507,-5.371
0.014,1.002,-0.181,10.559,4.150,-3.296
0.002,1.020,-0.148,8.850,2.380,-1.953
-0.003,1.020,-0.150,8.972,5.371,-6.287
0.005,0.993,-0.165,9.521,6.653,-8.545
0.011,0.984,-0.162,8.362,5.188,-7.629
0.008,0.986,-0.141,7.141,4.456,-6.287
0.006,0.992,-0.136,5.737,3.845,-5.249
0.005,0.992,-0.142,3.601,2.808,-4.944
0.010,0.988,-0.139,3.601,2.380,-5.249
0.011,0.991,-0.122,3.601,1.892,-4.089
0.006,0.997,-0.123,3.357,1.953,-3.845
0.004,0.999,-0.130,5.249,2.197,-5.920
0.006,0.995,-0.120,6.836,1.770,-6.836
0.008,0.999,-0.105,6.165,0.366,-6.042
0.010,1.006,-0.100,5.005,-0.061,-4.639
0.010,1.012,-0.090,1.709,-0.671,-1.831
0.011,1.019,-0.095,0.427,-0.122,-1.831
0.052,0.910,-0.011,-160.706,63.049,26.550
0.037,0.917,-0.076,-149.963,58.594,25.635
0.037,0.923,-0.091,-132.874,46.387,26.367
0.042,0.931,-0.102,-125.671,43.213,26.672
0.038,0.936,-0.108,-117.554,40.833,26.245
0.027,0.934,-0.167,-114.136,39.551,24.963
0.024,0.925,-0.187,-101.929,37.354,21.301
0.012,0.903,-0.214,-94.788,37.781,20.203
0.009,0.896,-0.224,-80.383,40.833,17.578
0.009,0.882,-0.250,-73.914,42.664,15.930
0.010,0.885,-0.259,-61.951,42.725,14.282
-0.006,0.908,-0.276,-55.603,43.823,12.817
-0.020,0.909,-0.304,-41.199,45.349,5.005
-0.039,0.893,-0.326,-34.058,43.640,1.587
-0.049,0.887,-0.328,-26.794,36.682,0.610
-0.042,0.896,-0.364,-26.062,29.785,3.906
-0.049,0.923,-0.372,-18.066,17.944,8.301
-0.059,0.979,-0.359,-11.841,15.625,5.432
-0.050,0.989,-0.352,-5.920,13.245,-1.404
-0.028,1.002,-0.340,-7.141,10.986,-1.648
-0.019,1.013,-0.331,-11.780,4.700,1.038
-0.005,1.024,-0.343,-12.756,1.770,1.648
-0.003,1.018,-0.360,-9.094,-0.977,-1.404
0.008,0.980,-0.392,-5.493,-2.686,-3.906
0.016,0.965,-0.380,1.892,-8.667,-4.639
0.011,0.968,-0.322,3.540,-10.010,-4.272
0.010,0.969,-0.310,1.282,-8.972,-6.226
0.021,0.947,-0.332,0.122,-7.690,-7.690
0.025,0.933,-0.354,2.563,-6.409,-8.911
0.031,0.922,-0.344,5.249,-6.897,-8.179
-0.006,0.989,-0.168,-64.636,30.457,12.878
-0.029,0.997,-0.186,-61.157,31.982,10.681
-0.030,0.981,-0.205,-54.810,36.011,4.883
-0.027,0.955,-0.219,-53.406,37.598,5.127
-0.036,0.970,-0.217,-55.847,37.170,10.864
-0.054,0.999,-0.225,-58.472,35.645,12.146
-0.060,1.001,-0.244,-61.462,32.593,10.986
-0.048,0.984,-0.290,-58.533,32.288,9.583
-0.045,0.979,-0.291,-50.110,32.349,8.301
-0.054,0.969,-0.282,-48.950,32.776,7.629
-0.053,0.950,-0.303,-50.476,32.227,8.118
-0.069,0.925,-0.353,-50.232,29.846,9.460
-0.081,0.913,-0.378,-43.396,23.865,5.920
-0.071,0.892,-0.382,-37.659,20.569,3.296
-0.066,0.899,-0.358,-30.884,16.541,3.601
-0.068,0.909,-0.349,-29.907,17.761,3.906
-0.070,0.902,-0.370,-26.428,19.958,3.723
-0.082,0.906,-0.393,-23.865,17.883,3.845
-0.083,0.909,-0.384,-18.616,13.306,0.244
-0.069,0.894,-0.380,-16.602,12.512,-1.343
-0.066,0.904,-0.375,-15.259,10.132,1.953
-0.082,0.939,-0.382,-14.587,9.460,2.441
-0.083,0.936,-0.397,-9.277,8.789,-2.991
-0.070,0.912,-0.408,-5.920,7.324,-4.822
-0.070,0.907,-0.408,-1.221,2.014,-4.456
-0.081,0.905,-0.395,0.977,0.122,-4.456
-0.083,0.903,-0.392,3.662,-1.831,-4.822
-0.082,0.912,-0.376,4.150,-2.808,-4.211
-0.082,0.920,-0.369,2.991,-3.296,-3.235
-0.080,0.924,-0.377,2.808,-2.869,-3.357
-0.098,0.914,-0.438,7.568,-6.104,0.977
-0.085,0.912,-0.409,5.676,-4.822,-0.061
-0.085,0.920,-0.401,2.075,-4.089,1.587
-0.104,0.932,-0.440,-4.883,-2.136,3.174
-0.109,0.929,-0.457,-4.639,-1.526,1.221
-0.084,0.917,-0.439,0.854,-2.258,-3.235
-0.073,0.918,-0.419,2.319,-3.540,-2.625
-0.070,0.924,-0.397,0.854,-6.104,0.061
-0.069,0.920,-0.388,0.366,-5.310,-1.038
-0.057,0.896,-0.410,-0.854,-1.404,-4.089
-0.055,0.893,-0.417,1.038,-1.465,-3.357
-0.054,0.898,-0.388,2.747,-1.343,-2.869
-0.049,0.902,-0.369,0.427,-0.244,-0.122
-0.061,0.906,-0.384,-2.319,0.549,0.977
-0.071,0.900,-0.403,-1.221,2.930,-2.563
-0.069,0.889,-0.416,1.648,3.601,-4.639
-0.066,0.889,-0.415,6.104,2.563,-4.517
-0.068,0.893,-0.393,7.019,1.465,-3.540
-0.073,0.899,-0.377,6.897,0.671,-2.808
-0.068,0.912,-0.367,3.357,1.099,-2.380
-0.067,0.915,-0.384,1.099,2.808,-1.038
-0.080,0.920,-0.410,2.563,3.113,-1.221
-0.083,0.918,-0.414,6.836,2.563,-4.150
-0.080,0.913,-0.411,7.751,1.099,-4.700
-0.082,0.916,-0.408,8.118,-0.732,-4.578
-0.078,0.920,-0.388,8.911,-3.418,-4.944
-0.069,0.920,-0.377,9.155,-3.540,-5.127
-0.060,0.928,-0.375,7.202,-3.296,-2.563
-0.062,0.933,-0.377,5.981,-3.479,-1.587
-0.052,0.930,-0.367,5.981,-3.174,-3.052
0.013,0.899,-0.385,5.554,-3.235,-0.305
0.019,0.890,-0.360,11.230,-7.446,-0.366
0.016,0.906,-0.310,16.907,-10.376,2.930
0.004,0.935,-0.244,14.648,-6.714,3.113
0.011,0.938,-0.261,4.272,-2.258,5.371
-0.000,0.964,-0.301,1.038,-3.479,7.629
-0.011,0.980,-0.304,2.136,-6.531,6.226
-0.000,0.985,-0.300,4.333,-7.202,3.174
0.018,0.979,-0.293,7.996,-7.874,1.282
0.020,0.991,-0.244,7.690,-7.263,2.319
0.012,0.998,-0.234,2.869,-2.502,-0.061
0.027,0.984,-0.254,-0.061,-0.854,-0.916
0.031,0.983,-0.266,-3.967,-2.136,2.380
0.020,0.989,-0.291,-2.197,-2.380,2.380
0.016,0.982,-0.292,5.737,-2.502,-1.892
0.031,0.963,-0.254,8.118,-2.502,-2.808
0.035,0.961,-0.234,4.761,-2.747,0.793
0.021,0.971,-0.233,1.465,-2.014,2.441
0.015,0.969,-0.250,-0.916,0.305,1.160
0.011,0.959,-0.277,0.122,0.610,0.061
0.010,0.957,-0.283,3.540,-0.244,-0.916
0.003,0.963,-0.278,4.822,-1.404,-0.732
0.000,0.965,-0.273,6.836,-2.319,-1.526
0.006,0.964,-0.249,6.958,-1.770,-2.319
0.012,0.965,-0.242,2.686,-0.732,-2.563
0.023,0.971,-0.252,0.610,-0.854,-2.441
0.027,0.970,-0.255,1.648,-1.160,-2.991
0.033,0.972,-0.248,3.174,-1.343,-3.174
0.031,0.976,-0.247,5.798,-0.244,-4.883
0.019,0.971,-0.248,6.775,0.610,-6.531
-0.023,0.928,-0.348,-52.002,15.930,9.827
0.000,0.918,-0.319,-38.086,10.193,5.981
0.015,0.913,-0.299,-33.264,10.864,4.639
0.015,0.905,-0.322,-34.058,13.000,5.127
0.001,0.900,-0.367,-34.790,14.038,5.737
-0.018,0.897,-0.410,-26.550,10.620,4.333
-0.026,0.901,-0.399,-18.799,9.155,2.441
-0.023,0.905,-0.364,-10.315,5.432,-0.916
-0.015,0.907,-0.352,-9.888,3.967,-1.038
-0.009,0.919,-0.361,-11.658,3.174,2.258
-0.017,0.936,-0.367,-12.878,1.709,4.272
-0.031,0.946,-0.387,-11.841,-1.526,2.441
-0.029,0.936,-0.390,-8.850,-2.869,-0.122
-0.024,0.923,-0.383,-2.625,-6.348,-2.258
-0.019,0.922,-0.366,0.244,-7.690,-2.625
-0.003,0.933,-0.343,2.502,-8.118,-2.136
-0.000,0.942,-0.333,1.770,-7.751,-1.160
0.003,0.947,-0.335,-0.244,-5.798,-0.671
-0.001,0.950,-0.339,-0.916,-5.371,-0.122
-0.009,0.947,-0.364,0.244,-4.578,0.122
-0.004,0.941,-0.365,1.953,-5.615,0.244
-0.010,0.947,-0.343,3.418,-10.254,2.563
-0.016,0.947,-0.338,4.150,-10.559,1.892
-0.003,0.937,-0.325,5.310,-6.958,-1.404
0.001,0.942,-0.307,4.395,-5.310,-0.793
0.004,0.948,-0.331,-0.183,-2.014,1.709
0.001,0.942,-0.357,-0.916,-1.892,2.502
-0.011,0.940,-0.360,2.563,-5.920,3.601
-0.014,0.943,-0.344,3.906,-8.423,3.662
-0.019,0.945,-0.321,5.127,-9.338,0.732
0.007,0.997,-0.148,-7.202,-2.197,1.770
0.005,1.003,-0.112,-2.075,-5.615,0.183
0.010,1.000,-0.094,-2.502,-5.554,-1.343
0.019,0.984,-0.132,-7.324,-1.709,-2.930
0.026,0.982,-0.150,-7.874,-2.930,0.305
0.029,0.996,-0.149,-7.019,-5.493,2.258
0.020,1.003,-0.135,-4.578,-7.446,1.160
0.022,1.003,-0.112,-4.944,-6.042,-0.488
0.026,1.001,-0.115,-7.507,-1.892,-1.526
0.032,0.991,-0.132,-7.446,0.122,-1.892
0.034,0.987,-0.137,-5.676,0.061,-0.916
0.020,0.995,-0.131,-4.578,-1.648,-0.610
0.019,0.994,-0.118,-1.953,-2.258,-3.113
0.034,0.980,-0.089,-2.502,-1.160,-3.784
0.038,0.980,-0.088,-6.958,1.953,-1.526
0.025,0.988,-0.126,-7.812,3.662,-0.854
0.022,0.987,-0.140,-3.540,3.662,-1.526
0.012,0.991,-0.131,-1.038,2.258,-1.587
0.008,0.991,-0.125,1.099,0.854,-3.113
0.013,0.979,-0.119,1.282,1.099,-4.150
0.015,0.979,-0.116,-0.183,0.854,-3.418
0.008,0.985,-0.120,-0.977,0.854,-2.808
0.007,0.984,-0.133,0.122,1.282,-3.357
0.010,0.977,-0.143,2.197,1.160,-3.662
0.012,0.975,-0.137,5.493,0.427,-3.540
0.013,0.977,-0.115,5.493,0.000,-2.930
0.014,0.983,-0.107,4.883,0.305,-2.380
0.021,0.987,-0.103,3.540,1.587,-1.648
0.021,0.993,-0.096,2.808,1.282,-0.732
0.018,0.996,-0.097,1.587,1.587,-0.549
0.006,0.974,-0.203,-33.203,5.798,12.512
-0.001,0.991,-0.203,-31.860,4.822,13.123
-0.001,0.988,-0.231,-23.376,3.784,10.132
-0.004,0.974,-0.256,-15.808,2.869,8.118
-0.010,0.969,-0.232,-3.418,1.953,2.686
-0.002,0.951,-0.186,-3.357,1.770,1.465
0.008,0.950,-0.180,-10.681,0.061,5.859
0.000,0.974,-0.168,-14.282,-0.549,8.789
-0.008,0.981,-0.175,-17.639,2.563,7.935
0.002,0.967,-0.232,-15.991,4.456,5.981
0.011,0.966,-0.244,-6.592,2.380,5.554
-0.002,0.980,-0.232,-1.770,0.549,5.493
-0.011,0.982,-0.218,3.540,-1.160,2.869
-0.008,0.988,-0.159,2.808,-0.610,2.136
-0.005,0.999,-0.144,-7.385,1.709,4.578
-0.013,1.015,-0.188,-11.658,3.601,5.127
-0.020,1.012,-0.215,-11.719,5.859,2.502
-0.033,0.993,-0.246,-8.667,5.798,0.305
-0.036,0.980,-0.249,-2.380,2.563,-2.686
-0.034,0.964,-0.226,-1.282,-0.183,-2.380
-0.033,0.969,-0.206,-4.395,-3.479,-0.854
-0.021,0.971,-0.202,-6.348,-3.174,-0.916
-0.016,0.970,-0.210,-5.615,-1.282,-1.831
-0.002,0.965,-0.224,-3.601,-1.038,-2.075
-0.002,0.966,-0.218,0.610,-1.953,-2.686
-0.002,0.956,-0.204,1.770,-2.014,-3.418
-0.004,0.952,-0.200,1.587,-1.282,-2.869
-0.010,0.953,-0.197,0.366,-0.610,-1.953
-0.008,0.953,-0.203,-1.587,0.122,0.671
-0.010,0.965,-0.217,-1.526,-0.122,1.770
-0.059,0.929,-0.352,-33.142,15.564,5.249
-0.067,0.931,-0.336,-29.968,14.038,3.418
-0.053,0.907,-0.345,-24.658,14.343,-0.183
-0.050,0.902,-0.340,-22.827,14.709,0.977
-0.074,0.933,-0.333,-26.855,11.597,6.897
-0.078,0.937,-0.353,-28.564,10.864,6.104
-0.062,0.921,-0.374,-21.423,10.803,0.732
-0.060,0.923,-0.352,-16.846,9.216,0.488
-0.063,0.924,-0.350,-13.550,7.690,0.610
-0.067,0.921,-0.360,-11.658,7.629,-0.244
-0.068,0.918,-0.350,-7.446,4.761,-0.916
-0.067,0.920,-0.343,-7.324,3.540,0.000
-0.081,0.932,-0.341,-9.888,3.479,2.686
-0.089,0.937,-0.353,-10.437,4.333,2.563
-0.096,0.937,-0.374,-8.057,5.981,-0.610
-0.089,0.917,-0.391,-6.226,4.395,-1.404
-0.084,0.917,-0.370,-4.822,0.610,0.916
-0.086,0.929,-0.344,-5.798,1.343,1.038
-0.082,0.923,-0.365,-7.446,3.174,-0.916
-0.072,0.914,-0.397,-6.409,1.892,-0.671
-0.071,0.918,-0.393,-2.686,-1.526,0.671
-0.072,0.922,-0.370,-1.465,-2.075,0.000
-0.066,0.918,-0.364,-3.052,-1.953,-0.977
-0.060,0.921,-0.367,-4.150,-1.892,-0.061
-0.067,0.932,-0.367,-3.723,-1.282,0.244
-0.075,0.932,-0.374,-2.686,-0.854,-0.854
-0.072,0.921,-0.374,-1.038,-0.916,-1.221
-0.067,0.909,-0.378,-1.282,-1.831,0.244
-0.074,0.913,-0.384,-0.366,-3.967,1.343
-0.076,0.922,-0.361,1.099,-4.211,-0.305
0.020,0.975,-0.039,-58.472,22.217,11.414
0.019,0.970,-0.087,-58.289,21.851,11.658
0.011,0.975,-0.115,-52.002,16.785,11.963
-0.002,0.975,-0.113,-46.570,15.137,9.888
-0.001,0.968,-0.098,-42.786,18.372,7.202
-0.006,0.969,-0.134,-45.288,18.921,8.972
-0.014,0.980,-0.159,-46.021,14.954,12.756
-0.032,0.998,-0.163,-42.603,14.771,10.986
-0.020,0.986,-0.168,-37.109,16.296,5.371
-0.005,0.974,-0.192,-36.072,14.587,6.592
-0.014,0.984,-0.193,-32.410,11.047,9.949
-0.029,0.986,-0.204,-29.236,10.803,8.667
-0.035,0.981,-0.209,-24.109,9.888,4.639
-0.037,0.965,-0.210,-23.132,9.094,3.296
-0.031,0.957,-0.215,-23.560,8.057,3.845
-0.026,0.953,-0.237,-23.499,7.141,5.310
-0.028,0.959,-0.240,-22.278,5.798,6.531
-0.022,0.963,-0.227,-16.846,3.723,5.920
-0.020,0.958,-0.238,-14.160,3.479,4.822
-0.031,0.950,-0.245,-8.423,1.526,2.808
-0.031,0.947,-0.230,-6.348,0.793,2.014
-0.027,0.948,-0.219,-8.240,0.610,3.357
-0.031,0.962,-0.225,-10.193,1.099,4.089
-0.028,0.963,-0.244,-8.850,1.465,3.052
-0.022,0.958,-0.260,-6.165,0.183,2.991
-0.029,0.963,-0.249,-2.197,-2.625,3.235
-0.041,0.972,-0.217,-1.831,-2.136,1.709
-0.034,0.968,-0.217,-4.761,-0.610,0.000
-0.030,0.971,-0.224,-6.897,-0.671,1.160
-0.034,0.975,-0.237,-8.484,0.427,1.465
0.003,0.943,-0.166,-41.138,16.418,8.423
0.007,0.937,-0.161,-36.682,18.433,6.348
0.012,0.936,-0.185,-33.142,21.179,7.080
0.008,0.946,-0.187,-32.593,19.653,9.583
-0.001,0.961,-0.171,-33.325,16.602,12.695
-0.012,0.972,-0.179,-34.119,18.066,11.536
-0.015,0.965,-0.209,-32.166,18.982,8.606
-0.022,0.957,-0.250,-28.809,16.602,8.606
-0.031,0.966,-0.253,-20.630,10.742,8.850
-0.046,0.974,-0.253,-16.968,7.996,7.568
-0.045,0.970,-0.241,-13.672,5.920,5.859
-0.042,0.969,-0.216,-12.390,5.310,4.517
-0.040,0.980,-0.193,-16.235,6.042,5.554
-0.041,0.984,-0.212,-21.545,7.568,5.737
-0.040,0.978,-0.251,-20.264,7.751,3.845
-0.031,0.967,-0.259,-15.503,5.798,2.014
-0.029,0.954,-0.266,-13.367,4.578,3.113
-0.037,0.958,-0.262,-11.658,3.235,4.578
-0.045,0.965,-0.252,-11.047,0.916,5.066
-0.048,0.962,-0.252,-11.047,1.465,3.540
-0.044,0.955,-0.262,-9.033,2.258,1.404
-0.033,0.948,-0.254,-8.179,1.099,2.014
-0.033,0.950,-0.248,-8.789,-1.282,4.761
-0.040,0.950,-0.259,-8.484,-1.221,4.700
-0.039,0.946,-0.259,-7.324,-0.732,3.845
-0.039,0.945,-0.255,-6.409,-0.549,3.540
-0.044,0.949,-0.259,-6.409,-0.549,3.540
-0.044,0.948,-0.264,-5.615,-1.892,4.395
-0.053,0.953,-0.261,-4.395,-2.869,4.761
-0.056,0.951,-0.260,-0.671,-2.258,2.930
-0.021,0.955,-0.201,-46.448,10.437,8.179
-0.032,0.962,-0.212,-44.006,9.460,8.728
-0.037,0.964,-0.213,-37.170,8.911,7.324
-0.031,0.962,-0.214,-34.668,8.667,6.897
-0.038,0.976,-0.207,-32.104,6.653,9.399
-0.051,0.988,-0.205,-30.823,6.897,7.629
-0.030,0.973,-0.225,-30.579,7.080,5.615
-0.021,0.967,-0.232,-31.006,6.042,6.348
-0.032,0.972,-0.236,-31.555,3.296,9.949
-0.034,0.965,-0.250,-29.907,4.639,8.850
-0.018,0.951,-0.268,-26.794,3.723,7.568
-0.023,0.956,-0.276,-25.391,1.892,8.789
-0.030,0.950,-0.295,-17.639,2.258,6.104
-0.025,0.945,-0.292,-13.428,1.221,4.211
-0.028,0.950,-0.278,-7.812,-1.648,2.991
-0.040,0.950,-0.268,-5.615,0.122,0.854
-0.036,0.941,-0.275,-3.235,5.249,-2.014
-0.037,0.936,-0.298,-2.014,5.981,-1.282
-0.036,0.940,-0.298,2.075,2.380,1.099
-0.038,0.960,-0.260,3.296,-0.061,2.014
-0.045,0.968,-0.251,3.662,0.244,-0.671
-0.047,0.963,-0.263,3.967,1.709,-2.747
-0.044,0.962,-0.264,4.211,2.136,-2.747
-0.039,0.979,-0.230,3.296,1.770,-1.831
-0.034,0.981,-0.225,-0.244,3.113,-1.099
-0.031,0.972,-0.242,-1.953,2.869,0.061
-0.040,0.974,-0.245,-2.258,1.892,0.793
-0.051,0.969,-0.256,-0.977,2.441,-1.038
-0.045,0.958,-0.263,1.465,2.136,-3.296
-0.037,0.949,-0.260,1.892,0.549,-2.258
-0.054,0.919,-0.255,-46.326,7.996,-0.977
-0.054,0.918,-0.282,-37.659,3.540,2.747
-0.062,0.937,-0.286,-31.738,0.732,4.150
-0.064,0.935,-0.289,-26.123,-0.732,3.845
-0.063,0.919,-0.291,-16.052,0.977,0.244
-0.066,0.920,-0.286,-12.756,2.258,-0.732
-0.068,0.935,-0.291,-11.047,0.610,0.793
-0.069,0.942,-0.296,-10.132,-0.854,1.831
-0.069,0.958,-0.271,-4.639,-0.183,1.221
-0.062,0.960,-0.257,-3.479,0.977,0.671
-0.062,0.972,-0.250,-6.897,2.808,1.709
-0.061,0.978,-0.253,-9.460,3.113,2.075
-0.062,0.985,-0.269,-14.038,3.357,2.747
-0.064,0.978,-0.297,-13.977,4.395,1.831
-0.061,0.971,-0.310,-6.775,3.235,-1.465
-0.047,0.960,-0.294,-2.441,3.052,-2.991
-0.042,0.952,-0.288,1.709,2.747,-2.441
-0.052,0.952,-0.264,1.709,2.869,-1.404
-0.053,0.951,-0.261,-0.549,5.554,-1.770
-0.042,0.944,-0.263,-2.075,6.348,-1.648
-0.040,0.945,-0.271,-3.967,6.165,0.427
-0.048,0.954,-0.293,-3.052,5.493,0.671
-0.054,0.955,-0.296,2.502,5.432,-2.441
-0.057,0.947,-0.294,5.676,5.432,-4.089
-0.056,0.945,-0.284,9.888,4.517,-5.432
-0.052,0.941,-0.244,10.071,5.493,-5.615
-0.047,0.940,-0.237,4.517,6.775,-2.930
-0.051,0.957,-0.234,1.099,6.592,-0.977
-0.056,0.963,-0.249,-1.709,6.042,-0.366
-0.062,0.963,-0.275,-0.427,4.700,-1.160
-0.027,0.940,-0.152,-95.093,38.757,15.381
-0.029,0.921,-0.188,-83.679,35.461,11.963
-0.024,0.923,-0.158,-70.618,27.527,10.681
-0.025,0.941,-0.107,-69.946,28.992,11.108
-0.017,0.945,-0.111,-74.585,35.034,13.611
-0.013,0.955,-0.146,-76.782,36.255,16.113
-0.029,0.968,-0.160,-77.820,36.438,17.883
-0.054,0.973,-0.218,-75.562,37.231,15.503
-0.059,0.968,-0.243,-67.932,34.241,10.986
-0.062,0.968,-0.226,-66.406,31.128,10.864
-0.070,0.970,-0.222,-68.848,31.616,11.536
-0.071,0.947,-0.298,-70.068,32.593,11.536
-0.068,0.935,-0.344,-62.256,27.527,13.245
-0.087,0.949,-0.345,-55.481,23.315,13.428
-0.095,0.953,-0.332,-49.561,20.569,10.681
-0.089,0.947,-0.327,-42.847,18.677,2.625
-0.066,0.930,-0.322,-42.969,18.127,2.075
-0.062,0.925,-0.347,-43.030,17.029,5.798
-0.071,0.932,-0.384,-39.673,14.587,7.568
-0.092,0.942,-0.387,-29.358,10.376,3.845
-0.104,0.922,-0.394,-24.048,9.094,-1.526
-0.086,0.900,-0.398,-15.259,7.202,-6.042
-0.073,0.893,-0.412,-12.695,5.066,-3.479
-0.084,0.903,-0.415,-7.019,0.000,-0.366
-0.102,0.906,-0.387,-4.333,-1.038,-1.770
-0.096,0.901,-0.380,-3.967,-0.610,-4.028
-0.092,0.899,-0.405,-2.991,-0.549,-4.089
-0.096,0.903,-0.403,2.380,-1.648,-5.005
-0.092,0.908,-0.372,3.418,-1.831,-5.127
-0.091,0.912,-0.371,2.014,0.061,-4.517
0.097,0.879,0.392,-139.404,48.401,1.343
0.087,0.887,0.323,-138.794,53.650,1.221
0.079,0.884,0.268,-140.259,45.227,5.249
0.094,0.884,0.168,-135.803,36.194,8.911
0.091,0.902,0.150,-114.441,27.344,10.986
0.091,0.924,0.163,-103.699,28.076,7.446
0.096,0.925,0.186,-95.032,33.691,1.099
0.104,0.916,0.168,-96.619,35.767,1.587
0.111,0.917,0.146,-100.769,33.508,7.935
0.109,0.932,0.056,-98.999,30.762,10.864
0.107,0.943,0.028,-92.651,25.757,12.451
0.101,0.954,0.060,-75.317,19.531,11.108
0.100,0.955,0.077,-71.716,20.020,10.376
0.100,0.960,0.087,-76.294,21.973,12.512
0.099,0.955,0.033,-78.796,23.437,13.672
0.096,0.950,-0.010,-75.562,21.851,16.113
0.076,0.956,-0.057,-70.740,19.897,16.357
0.072,0.954,-0.073,-59.937,16.724,13.367
0.066,0.950,-0.085,-54.810,16.541,11.536
0.062,0.949,-0.088,-48.340,17.944,9.399
0.055,0.947,-0.116,-46.997,18.372,9.827
0.047,0.951,-0.137,-43.823,16.785,10.742
0.048,0.959,-0.157,-41.504,14.404,10.010
0.054,0.965,-0.140,-39.856,10.742,9.949
0.051,0.980,-0.126,-40.588,11.780,9.644
0.051,0.979,-0.156,-38.269,13.855,8.118
0.057,0.971,-0.190,-34.363,12.512,8.667
0.057,0.974,-0.186,-30.273,10.620,10.132
0.043,0.983,-0.200,-25.818,8.240,11.169
0.034,0.979,-0.212,-23.010,6.958,9.705
0.089,0.947,0.146,-109.192,28.137,17.639
0.081,0.957,0.139,-109.558,32.593,17.151
0.077,0.949,0.078,-109.436,36.987,16.785
0.062,0.955,0.025,-107.117,35.645,17.151
0.046,0.961,0.009,-101.990,37.170,14.526
0.060,0.939,-0.051,-99.609,37.292,12.512
0.063,0.926,-0.087,-91.980,33.813,14.160
0.052,0.936,-0.123,-86.731,31.128,16.235
0.043,0.950,-0.123,-75.439,29.053,16.418
0.019,0.978,-0.102,-71.716,29.724,13.977
0.023,0.979,-0.104,-72.937,30.090,9.949
0.034,0.986,-0.121,-75.562,28.442,11.169
0.033,0.989,-0.143,-75.073,26.733,13.611
0.020,0.989,-0.210,-71.289,25.818,13.306
0.011,0.986,-0.245,-65.247,24.536,11.475
0.014,0.972,-0.255,-47.302,21.606,5.066
0.018,0.968,-0.220,-39.612,20.569,3.296
0.019,0.969,-0.192,-40.405,20.630,5.310
0.020,0.959,-0.226,-45.288,19.897,7.446
0.016,0.954,-0.258,-46.631,16.418,10.620
-0.009,0.969,-0.278,-42.236,14.954,10.010
-0.014,0.972,-0.273,-32.349,14.954,3.906
-0.001,0.951,-0.291,-29.114,14.771,1.892
0.005,0.947,-0.292,-26.306,11.292,4.395
-0.009,0.958,-0.280,-26.245,10.193,6.165
-0.018,0.957,-0.289,-24.841,10.925,4.395
-0.013,0.933,-0.333,-22.339,10.376,3.052
-0.012,0.933,-0.335,-16.113,4.639,3.784
-0.022,0.940,-0.345,-11.963,1.953,2.991
-0.023,0.940,-0.332,-3.052,-2.136,-1.038
0.070,0.944,-0.254,-50.720,13.306,11.597
0.080,0.935,-0.267,-53.040,13.550,13.428
0.078,0.934,-0.277,-55.054,15.869,15.015
0.057,0.938,-0.303,-54.504,17.822,14.404
0.048,0.931,-0.315,-49.988,22.949,10.132
0.027,0.917,-0.345,-48.828,23.743,9.033
0.021,0.914,-0.356,-47.791,20.691,9.766
0.011,0.922,-0.356,-48.035,18.799,10.864
0.009,0.922,-0.366,-48.828,17.761,11.292
0.010,0.896,-0.403,-46.631,18.616,9.827
0.011,0.888,-0.407,-44.067,17.761,10.010
0.005,0.891,-0.404,-38.208,15.747,10.132
-0.018,0.901,-0.400,-34.485,16.418,7.935
-0.019,0.885,-0.410,-28.259,19.043,2.808
-0.010,0.855,-0.432,-27.344,18.127,3.479
-0.010,0.859,-0.433,-28.809,13.245,9.583
-0.030,0.882,-0.441,-28.687,12.146,11.292
-0.038,0.888,-0.449,-25.696,12.146,9.705
-0.056,0.895,-0.465,-24.048,11.902,7.690
-0.056,0.887,-0.478,-16.907,12.878,1.404
-0.037,0.861,-0.497,-12.756,12.512,0.183
-0.038,0.865,-0.492,-8.118,6.226,2.930
-0.027,0.875,-0.466,-7.446,2.869,3.784
-0.017,0.875,-0.457,-8.057,0.366,6.287
-0.029,0.891,-0.458,-9.033,0.732,6.775
-0.038,0.887,-0.482,-7.202,3.235,1.099
-0.031,0.872,-0.521,-3.540,2.869,-1.343
-0.031,0.879,-0.517,4.639,-0.916,-2.197
-0.036,0.887,-0.477,7.446,-1.953,-3.296
-0.026,0.882,-0.455,5.676,-3.174,-3.418
0.140,0.951,0.218,-122.864,26.367,22.644
0.145,0.949,0.194,-117.371,30.029,17.456
0.170,0.939,0.133,-114.380,29.541,17.212
0.154,0.948,0.124,-111.145,26.123,20.691
0.146,0.948,0.096,-112.061,26.855,20.691
0.149,0.938,0.045,-113.525,31.433,22.400
0.126,0.938,-0.042,-112.671,30.701,24.536
0.118,0.938,-0.077,-106.018,29.297,25.818
0.095,0.948,-0.110,-101.990,28.259,25.635
0.086,0.945,-0.115,-96.069,29.602,23.926
0.081,0.930,-0.156,-94.055,31.982,23.682
0.073,0.931,-0.182,-87.585,34.912,24.841
0.042,0.938,-0.207,-83.130,34.973,24.353
0.027,0.938,-0.217,-74.768,34.302,20.142
0.017,0.948,-0.222,-71.411,31.311,18.250
0.009,0.961,-0.202,-69.458,28.381,16.418
0.031,0.960,-0.249,-71.350,26.550,11.597
0.042,0.966,-0.280,-69.092,22.827,12.390
0.033,0.986,-0.268,-56.396,12.390,14.343
0.020,0.993,-0.241,-51.086,11.719,10.132
0.027,0.973,-0.259,-45.471,13.489,1.831
0.039,0.947,-0.275,-45.410,12.207,2.136
0.032,0.951,-0.283,-47.424,9.338,5.615
0.026,0.950,-0.313,-46.875,8.301,5.005
0.026,0.935,-0.356,-39.917,6.348,0.610
0.011,0.899,-0.410,-32.959,4.456,-2.441
0.020,0.884,-0.411,-18.250,1.404,-5.798
0.040,0.876,-0.405,-13.916,-0.916,-3.418
0.032,0.880,-0.392,-10.986,-5.615,0.977
0.027,0.883,-0.394,-10.132,-4.883,0.183
0.081,0.897,-0.312,-66.650,18.188,10.681
0.071,0.888,-0.309,-63.232,17.578,12.512
0.058,0.882,-0.349,-64.087,16.968,14.832
0.045,0.885,-0.381,-59.998,12.939,18.250
0.013,0.881,-0.420,-54.077,11.902,16.418
0.009,0.872,-0.434,-46.082,12.512,12.207
0.033,0.852,-0.422,-28.503,12.451,5.432
0.041,0.862,-0.385,-24.414,9.277,7.019
0.037,0.884,-0.352,-25.085,6.897,10.559
0.042,0.901,-0.364,-25.635,8.728,9.033
0.050,0.896,-0.385,-24.658,9.949,8.179
0.053,0.897,-0.380,-23.193,9.766,9.155
0.050,0.904,-0.372,-24.597,8.972,11.719
0.034,0.919,-0.409,-25.330,7.996,11.780
0.028,0.920,-0.431,-17.822,6.531,7.019
0.037,0.917,-0.450,-12.207,4.700,4.456
0.039,0.919,-0.445,-1.526,0.000,2.380
0.034,0.934,-0.369,1.221,-1.282,1.526
0.036,0.937,-0.339,-4.944,1.709,-0.122
0.046,0.929,-0.379,-10.193,3.662,0.244
0.045,0.926,-0.406,-12.146,2.930,1.892
0.037,0.921,-0.429,-9.521,1.953,1.221
0.034,0.910,-0.434,-3.174,0.305,-2.441
0.034,0.895,-0.400,-1.709,-0.305,-3.357
0.039,0.893,-0.383,-2.930,-0.061,-3.174
0.046,0.893,-0.407,-9.460,2.869,-1.465
0.046,0.891,-0.430,-10.010,4.395,-1.465
0.043,0.890,-0.438,-5.005,4.456,-2.686
0.039,0.891,-0.434,-2.563,3.296,-2.869
0.039,0.890,-0.420,0.549,1.465,-3.357