aX,aY,aZ,gX,gY,gZ
-0.196,-1.011,-0.497,27.527,13.184,-34.851
-0.181,-1.047,-0.486,29.724,15.686,-28.992
-0.207,-1.040,-0.484,33.325,18.616,-23.071
-0.243,-0.964,-0.452,37.903,20.386,-15.564
-0.256,-0.920,-0.439,27.954,14.709,-17.883
-0.271,-0.898,-0.457,19.348,9.705,-20.874
-0.259,-0.913,-0.470,11.902,4.150,-22.095
-0.237,-0.920,-0.461,8.362,0.732,-16.663
-0.252,-0.912,-0.461,10.925,3.662,-12.390
-0.278,-0.892,-0.448,13.184,6.470,-6.958
-0.267,-0.887,-0.419,10.803,5.005,-5.554
-0.260,-0.893,-0.397,3.052,7.202,0.122
-0.274,-0.894,-0.421,0.488,11.169,3.723
-0.312,-0.887,-0.481,-0.610,14.160,7.141
-0.308,-0.879,-0.486,0.061,11.414,5.554
-0.287,-0.875,-0.470,0.122,3.967,2.380
-0.258,-0.880,-0.437,-0.977,2.319,2.563
-0.259,-0.880,-0.433,-3.296,1.221,3.845
-0.281,-0.869,-0.416,-3.174,1.221,3.967
-0.293,-0.865,-0.414,-1.465,3.052,4.639
-0.302,-0.854,-0.416,-1.099,3.967,5.249
-0.297,-0.846,-0.424,-2.563,4.883,4.333
-0.284,-0.849,-0.454,-3.723,4.211,2.563
-0.280,-0.859,-0.464,-3.540,0.305,0.061
-0.267,-0.863,-0.441,-2.136,-1.282,0.122
-0.264,-0.855,-0.421,-0.366,-0.732,2.380
-0.267,-0.834,-0.402,-2.258,0.488,3.845
-0.270,-0.831,-0.416,-7.080,2.197,4.395
-0.273,-0.834,-0.447,-7.751,2.014,3.662
-0.278,-0.835,-0.456,-5.981,1.831,2.625
-0.088,-0.874,-0.189,77.332,13.123,-48.950
-0.078,-0.888,-0.171,70.618,14.587,-54.138
-0.066,-0.922,-0.154,68.359,20.691,-54.016
-0.089,-0.946,-0.188,64.392,32.471,-45.837
-0.141,-0.990,-0.269,65.979,35.950,-40.833
-0.139,-1.020,-0.275,69.092,39.490,-36.011
-0.203,-1.046,-0.320,79.651,52.246,-27.466
-0.246,-1.048,-0.383,86.243,60.425,-29.724
-0.266,-1.059,-0.441,88.684,58.899,-43.762
-0.237,-1.084,-0.443,84.900,52.551,-50.476
-0.161,-1.177,-0.453,79.529,50.049,-52.673
-0.157,-1.208,-0.465,82.031,56.091,-44.983
-0.237,-1.212,-0.513,95.459,71.960,-27.161
-0.262,-1.196,-0.528,97.900,73.975,-22.888
-0.212,-1.149,-0.497,81.726,62.378,-19.897
-0.173,-1.130,-0.497,67.871,55.908,-18.372
-0.156,-1.112,-0.529,44.250,46.387,-11.597
-0.175,-1.078,-0.590,36.194,39.856,-9.033
-0.188,-1.052,-0.535,25.085,21.973,-5.798
-0.192,-1.033,-0.500,21.179,15.137,-2.991
-0.206,-1.005,-0.481,15.991,8.850,4.089
-0.252,-0.929,-0.463,13.916,7.202,5.920
-0.270,-0.892,-0.453,7.080,1.953,4.028
-0.286,-0.856,-0.426,2.625,-0.916,1.221
-0.286,-0.856,-0.422,-3.296,-3.906,-2.380
-0.279,-0.862,-0.436,-3.479,-4.272,-2.441
-0.277,-0.862,-0.433,-0.916,-2.563,-1.709
-0.280,-0.863,-0.418,-0.244,-0.610,-2.075
-0.283,-0.854,-0.428,-2.930,1.709,-3.052
-0.282,-0.853,-0.441,-5.127,1.953,-2.930
0.057,-1.196,-0.110,41.870,-12.268,-91.675
0.000,-1.252,-0.191,35.034,-1.099,-81.421
-0.053,-1.233,-0.229,43.152,26.001,-55.847
-0.090,-1.195,-0.219,50.720,38.757,-45.288
-0.127,-1.153,-0.204,54.810,55.603,-35.828
-0.165,-1.107,-0.226,50.537,59.326,-35.156
-0.163,-1.106,-0.267,37.598,58.838,-33.203
-0.149,-1.103,-0.327,32.959,57.373,-32.043
-0.141,-1.099,-0.322,26.062,57.129,-29.358
-0.164,-1.112,-0.368,23.560,57.312,-26.978
-0.177,-1.119,-0.424,24.048,50.598,-22.583
-0.145,-1.113,-0.434,25.330,43.823,-20.935
-0.126,-1.099,-0.397,24.780,35.889,-16.541
-0.158,-1.081,-0.368,23.254,33.813,-15.869
-0.181,-1.089,-0.387,14.954,20.691,-17.456
-0.156,-1.092,-0.385,8.118,10.559,-15.991
-0.132,-1.089,-0.357,1.953,-0.549,-8.118
-0.136,-1.067,-0.318,3.296,0.305,-2.502
-0.160,-1.038,-0.308,4.089,4.517,7.629
-0.219,-0.988,-0.297,2.258,5.737,9.155
-0.228,-0.976,-0.291,-1.831,4.333,6.531
-0.233,-0.954,-0.289,-3.418,2.319,5.676
-0.237,-0.947,-0.302,-5.249,0.305,4.395
-0.235,-0.931,-0.313,-4.578,0.183,3.601
-0.237,-0.923,-0.311,-3.601,0.122,2.747
-0.241,-0.907,-0.301,-3.662,0.244,2.197
-0.240,-0.901,-0.292,-5.371,0.427,-0.183
-0.227,-0.904,-0.297,-7.446,0.366,-0.793
-0.221,-0.909,-0.311,-8.972,0.305,-0.977
-0.217,-0.908,-0.330,-7.568,0.366,-1.343
-0.081,-1.151,-0.289,102.234,31.433,-50.476
-0.048,-1.200,-0.282,82.397,32.959,-46.021
-0.051,-1.264,-0.343,85.693,43.091,-32.227
-0.113,-1.227,-0.376,107.117,66.589,-7.812
-0.204,-1.104,-0.396,112.549,71.167,-8.728
-0.189,-1.066,-0.360,91.187,60.303,-20.630
-0.134,-1.082,-0.397,74.890,56.946,-24.414
-0.123,-1.099,-0.464,58.960,56.213,-22.278
-0.123,-1.078,-0.528,58.167,55.359,-19.165
-0.130,-1.055,-0.516,50.110,46.570,-14.832
-0.143,-1.043,-0.472,40.955,39.368,-13.733
-0.159,-1.047,-0.471,26.428,26.733,-12.817
-0.198,-1.030,-0.494,23.987,20.874,-13.367
-0.192,-1.007,-0.484,20.630,8.484,-14.587
-0.180,-0.960,-0.438,17.517,4.028,-13.916
-0.192,-0.945,-0.431,12.451,0.610,-12.329
-0.207,-0.922,-0.417,10.559,0.305,-11.108
-0.214,-0.915,-0.420,7.935,2.441,-8.118
-0.224,-0.903,-0.432,7.324,2.991,-6.897
-0.222,-0.896,-0.429,6.042,2.686,-5.798
-0.205,-0.885,-0.413,4.395,2.991,-5.005
-0.199,-0.885,-0.414,0.244,6.042,-0.977
-0.212,-0.891,-0.445,-0.977,7.324,1.404
-0.226,-0.888,-0.462,-0.183,5.920,2.319
-0.237,-0.865,-0.468,0.122,3.418,0.366
-0.235,-0.853,-0.468,-0.854,0.610,-2.136
-0.226,-0.849,-0.453,-4.517,-3.540,-6.958
-0.220,-0.857,-0.436,-6.287,-4.578,-8.484
-0.216,-0.879,-0.427,-8.911,-4.333,-7.812
-0.214,-0.884,-0.433,-8.789,-3.540,-6.042
-0.199,-1.079,-0.249,32.715,21.790,-27.954
-0.206,-1.086,-0.285,28.992,24.536,-18.799
-0.218,-1.087,-0.322,31.006,23.437,-15.747
-0.218,-1.078,-0.310,32.288,17.517,-10.681
-0.205,-1.045,-0.274,30.701,14.465,-7.812
-0.190,-1.022,-0.243,24.780,14.404,-0.671
-0.190,-0.989,-0.237,20.874,17.151,3.906
-0.209,-0.977,-0.270,15.564,20.691,10.498
-0.238,-0.953,-0.319,14.771,19.409,10.559
-0.238,-0.943,-0.323,14.526,12.756,7.019
-0.241,-0.917,-0.330,15.076,9.705,4.639
-0.238,-0.906,-0.324,15.808,7.080,1.831
-0.222,-0.898,-0.279,13.428,3.052,-1.831
-0.219,-0.903,-0.271,9.766,2.686,-2.136
-0.220,-0.925,-0.307,3.479,4.395,-2.075
-0.211,-0.932,-0.325,2.686,4.883,-1.770
-0.203,-0.938,-0.350,4.883,4.944,0.183
-0.210,-0.937,-0.354,6.226,4.272,1.038
-0.215,-0.931,-0.345,4.944,0.366,0.854
-0.202,-0.930,-0.301,1.770,-1.709,0.916
-0.195,-0.936,-0.287,-4.639,-0.671,4.272
-0.210,-0.938,-0.303,-5.188,2.563,6.836
-0.226,-0.927,-0.321,-1.648,7.629,10.498
-0.245,-0.898,-0.326,0.000,7.446,10.193
-0.248,-0.891,-0.320,-1.282,3.723,6.714
-0.245,-0.893,-0.328,-2.747,1.343,4.517
-0.236,-0.896,-0.320,-4.395,-1.770,0.854
-0.221,-0.907,-0.297,-5.005,-1.770,0.366
-0.223,-0.913,-0.304,-3.662,0.122,0.977
-0.212,-0.909,-0.290,-2.686,1.221,1.343
-0.123,-1.094,-0.385,11.536,51.636,-37.720
-0.193,-1.157,-0.499,15.808,52.979,-34.302
-0.204,-1.175,-0.522,29.602,44.983,-31.555
-0.184,-1.154,-0.496,34.302,37.170,-30.518
-0.134,-1.106,-0.401,34.546,22.888,-30.640
-0.124,-1.098,-0.369,27.039,18.066,-29.175
-0.135,-1.105,-0.383,5.798,9.644,-21.484
-0.144,-1.106,-0.409,0.854,6.592,-17.822
-0.155,-1.074,-0.413,4.211,1.526,-11.230
-0.155,-1.041,-0.387,7.751,-0.305,-7.812
-0.160,-0.984,-0.357,11.841,-0.305,-1.160
-0.173,-0.962,-0.354,12.573,0.793,2.319
-0.196,-0.913,-0.323,10.010,2.258,8.362
-0.203,-0.895,-0.307,5.310,2.686,9.827
-0.209,-0.901,-0.364,-3.906,5.310,9.521
-0.207,-0.906,-0.398,-3.784,5.371,8.484
-0.192,-0.899,-0.394,2.502,3.357,4.883
-0.185,-0.896,-0.374,4.639,3.113,2.991
-0.178,-0.895,-0.353,2.686,3.601,0.854
-0.167,-0.899,-0.338,-0.916,4.272,0.671
-0.168,-0.904,-0.356,-5.981,7.263,1.160
-0.186,-0.908,-0.408,-5.371,8.240,1.221
-0.195,-0.908,-0.422,-0.244,5.798,-0.427
-0.194,-0.899,-0.394,1.648,3.113,-1.587
-0.186,-0.894,-0.369,0.610,1.160,-3.174
-0.178,-0.894,-0.359,-1.465,1.770,-3.174
-0.181,-0.895,-0.369,-4.089,3.052,-2.136
-0.191,-0.896,-0.385,-4.395,3.113,-2.014
-0.196,-0.896,-0.390,-2.625,2.136,-2.747
-0.203,-0.890,-0.384,-1.343,1.526,-3.479
-0.096,-1.177,-0.143,62.256,42.542,2.991
-0.265,-1.094,-0.228,63.049,45.715,1.038
-0.279,-1.088,-0.263,50.903,21.179,-24.048
-0.226,-1.106,-0.234,37.659,0.916,-33.630
-0.124,-1.155,-0.227,24.353,-13.672,-39.063
-0.107,-1.166,-0.229,27.771,-3.479,-27.344
-0.182,-1.138,-0.234,32.959,4.761,-23.376
-0.210,-1.117,-0.240,36.499,9.888,-25.940
-0.179,-1.096,-0.233,32.898,5.920,-25.330
-0.147,-1.090,-0.231,26.794,5.249,-15.503
-0.131,-1.061,-0.219,24.048,9.338,-8.606
-0.159,-1.046,-0.234,19.592,16.296,0.610
-0.206,-1.040,-0.290,19.287,14.587,1.526
-0.189,-1.031,-0.272,17.273,7.080,4.578
-0.181,-1.008,-0.250,15.198,8.179,7.507
-0.199,-0.996,-0.266,9.888,8.667,11.230
-0.206,-0.983,-0.260,6.470,5.737,11.353
-0.195,-0.986,-0.249,3.357,3.662,11.658
-0.198,-0.989,-0.266,2.197,6.165,14.954
-0.211,-0.979,-0.276,4.272,8.728,16.174
-0.232,-0.939,-0.262,6.104,9.399,14.832
-0.239,-0.931,-0.264,3.662,7.568,13.123
-0.246,-0.933,-0.275,-1.465,1.648,10.620
-0.240,-0.933,-0.271,-0.977,-0.610,9.583
-0.230,-0.928,-0.252,1.343,0.549,7.568
-0.221,-0.916,-0.258,0.916,2.014,6.897
-0.224,-0.907,-0.269,-2.075,1.526,4.272
-0.219,-0.903,-0.267,-4.333,0.183,1.770
-0.213,-0.918,-0.267,-7.996,-2.014,-0.793
-0.202,-0.943,-0.275,-6.531,-1.648,-0.732
0.067,-1.222,-0.298,56.946,54.993,-36.743
-0.043,-1.114,-0.322,61.951,74.890,-17.761
-0.088,-1.081,-0.359,48.950,70.740,-21.057
-0.116,-1.068,-0.437,40.771,62.256,-28.503
-0.099,-1.081,-0.461,28.198,42.175,-43.884
-0.042,-1.118,-0.462,25.879,34.302,-47.729
-0.023,-1.126,-0.449,24.414,27.649,-43.518
-0.031,-1.118,-0.421,23.987,27.344,-38.757
-0.044,-1.122,-0.426,23.560,25.757,-30.640
-0.043,-1.134,-0.443,24.414,22.705,-26.367
-0.032,-1.124,-0.432,28.564,18.127,-17.273
-0.033,-1.077,-0.407,29.480,17.456,-13.733
-0.041,-1.056,-0.409,25.330,12.817,-8.118
-0.038,-1.012,-0.386,21.240,9.399,-4.883
-0.044,-0.992,-0.371,11.353,7.629,1.282
-0.075,-0.976,-0.392,6.592,7.935,3.906
-0.088,-0.967,-0.406,2.441,6.653,7.446
-0.108,-0.942,-0.420,2.930,6.409,7.568
-0.122,-0.926,-0.424,4.700,5.310,6.042
-0.137,-0.892,-0.406,4.395,2.930,4.211
-0.133,-0.875,-0.381,2.380,0.366,1.892
-0.142,-0.870,-0.370,-5.066,-1.343,-2.380
-0.152,-0.880,-0.386,-10.498,-1.648,-4.700
-0.145,-0.900,-0.403,-10.254,-1.526,-4.944
-0.141,-0.905,-0.402,-4.639,1.038,-4.395
-0.148,-0.908,-0.397,-2.075,2.319,-3.967
-0.150,-0.907,-0.392,-1.221,2.808,-3.967
-0.146,-0.906,-0.381,-2.502,1.709,-4.272
-0.143,-0.908,-0.379,-5.615,0.732,-4.700
-0.135,-0.920,-0.396,-5.676,1.221,-4.822
-0.073,-1.052,-0.228,33.569,31.982,-34.912
-0.091,-1.044,-0.237,28.687,34.668,-33.325
-0.114,-1.044,-0.277,23.376,37.109,-31.433
-0.126,-1.052,-0.352,23.193,33.813,-31.250
-0.094,-1.052,-0.365,26.245,26.001,-29.053
-0.087,-1.051,-0.360,28.259,24.658,-27.893
-0.093,-1.049,-0.362,25.208,22.522,-23.682
-0.102,-1.053,-0.380,17.639,13.733,-18.860
-0.113,-1.051,-0.398,15.808,8.240,-17.517
-0.113,-1.045,-0.389,13.672,-1.770,-15.198
-0.106,-1.028,-0.343,12.207,-5.737,-13.550
-0.104,-1.024,-0.326,9.460,-9.277,-9.583
-0.099,-1.023,-0.307,8.850,-8.423,-6.226
-0.102,-1.017,-0.311,11.597,-2.625,3.723
-0.136,-0.970,-0.328,14.465,0.793,7.385
-0.149,-0.941,-0.326,15.198,3.357,8.240
-0.156,-0.902,-0.294,11.169,2.869,7.385
-0.156,-0.896,-0.284,0.793,3.479,5.066
-0.162,-0.899,-0.303,-2.197,5.615,3.235
-0.168,-0.905,-0.334,-2.197,9.644,-0.488
-0.175,-0.913,-0.367,-0.305,9.155,-1.953
-0.172,-0.916,-0.357,2.563,5.188,-4.944
-0.155,-0.922,-0.331,2.136,4.150,-6.104
-0.150,-0.930,-0.329,-0.488,5.249,-6.653
-0.142,-0.937,-0.335,-1.709,6.165,-5.920
-0.142,-0.937,-0.344,-2.502,6.897,-4.761
-0.150,-0.937,-0.358,-3.296,6.958,-2.625
-0.156,-0.939,-0.363,-1.831,5.005,-2.258
-0.162,-0.940,-0.374,0.244,4.089,-2.563
-0.155,-0.937,-0.370,4.211,2.136,-3.235
-0.073,-0.956,-0.388,8.850,7.141,9.888
-0.089,-0.928,-0.381,6.775,5.676,9.399
-0.089,-0.920,-0.381,3.723,4.395,7.996
-0.096,-0.894,-0.370,3.296,5.676,7.629
-0.106,-0.884,-0.370,2.014,8.301,5.981
-0.122,-0.881,-0.383,0.854,7.751,4.944
-0.130,-0.883,-0.388,0.732,5.249,1.282
-0.129,-0.883,-0.388,1.648,3.784,-1.831
-0.117,-0.882,-0.380,1.282,2.502,-6.531
-0.104,-0.888,-0.376,-0.244,3.174,-7.141
-0.109,-0.896,-0.384,-4.272,3.540,-7.935
-0.109,-0.922,-0.404,-5.920,2.319,-8.240
-0.100,-0.934,-0.411,-4.272,0.366,-7.324
-0.091,-0.932,-0.408,-0.854,1.160,-6.714
-0.095,-0.926,-0.403,3.357,2.258,-6.409
-0.093,-0.921,-0.400,2.563,1.160,-6.104
-0.088,-0.922,-0.393,-0.122,-0.671,-4.211
-0.089,-0.918,-0.382,-1.099,-0.549,-3.357
-0.095,-0.915,-0.384,-3.479,-1.282,-2.991
-0.101,-0.918,-0.398,-4.272,-1.831,-2.747
-0.106,-0.918,-0.405,-2.197,-1.587,-2.075
-0.110,-0.912,-0.397,-0.122,-1.587,-2.441
-0.101,-0.908,-0.380,0.916,-1.465,-2.563
-0.094,-0.903,-0.366,-0.305,-1.160,-1.526
-0.099,-0.903,-0.366,-3.174,-0.122,0.366
-0.117,-0.906,-0.390,-3.479,0.488,0.244
-0.122,-0.906,-0.404,-0.671,-0.427,-1.587
-0.116,-0.900,-0.394,0.549,-1.160,-2.502
-0.114,-0.901,-0.391,-0.122,-1.770,-2.441
-0.111,-0.902,-0.380,-1.282,-2.258,-2.136
-0.150,-0.915,-0.399,2.686,8.179,-4.639
-0.146,-0.919,-0.390,1.404,7.507,-4.944
-0.141,-0.916,-0.383,1.343,9.460,-3.662
-0.146,-0.904,-0.381,1.343,11.414,-2.991
-0.155,-0.908,-0.403,1.831,12.878,-1.343
-0.166,-0.916,-0.426,4.333,12.146,-0.732
-0.166,-0.913,-0.404,8.972,11.536,-1.770
-0.166,-0.898,-0.368,8.362,12.085,-3.113
-0.163,-0.894,-0.369,2.930,12.878,-4.700
-0.170,-0.906,-0.427,1.648,12.878,-4.639
-0.173,-0.914,-0.450,6.653,9.827,-3.845
-0.160,-0.912,-0.414,9.888,8.057,-3.540
-0.158,-0.911,-0.392,11.047,7.263,-2.991
-0.163,-0.909,-0.386,9.888,7.568,-2.502
-0.162,-0.905,-0.388,5.554,8.484,-0.549
-0.166,-0.895,-0.402,2.625,8.850,0.366
-0.177,-0.894,-0.415,-1.709,7.690,0.549
-0.182,-0.897,-0.413,-2.502,6.287,-0.244
-0.183,-0.901,-0.413,-2.869,3.296,-2.319
-0.172,-0.901,-0.403,-2.502,2.014,-2.747
-0.178,-0.891,-0.398,-1.648,2.075,-1.465
-0.186,-0.892,-0.406,-1.587,2.319,-1.160
-0.180,-0.889,-0.393,-1.587,0.854,-1.587
-0.175,-0.890,-0.381,-2.197,0.488,-1.526
-0.180,-0.892,-0.389,-4.211,2.319,0.122
-0.186,-0.888,-0.399,-3.113,3.845,0.366
-0.186,-0.879,-0.407,-2.319,3.235,-0.427
-0.181,-0.879,-0.407,-0.549,1.770,-2.075
-0.175,-0.884,-0.398,-0.061,1.526,-2.502
-0.173,-0.887,-0.395,-1.343,0.977,-2.563
-0.095,-0.984,-0.226,21.667,31.372,4.395
-0.112,-0.964,-0.294,19.531,30.823,4.456
-0.104,-0.964,-0.316,16.418,24.658,2.686
-0.073,-0.966,-0.311,15.015,22.400,1.892
-0.075,-0.970,-0.314,10.437,19.714,0.488
-0.092,-0.978,-0.334,7.874,16.602,-1.221
-0.087,-0.979,-0.336,4.089,7.874,-6.042
-0.068,-0.975,-0.329,1.953,4.028,-7.019
-0.075,-0.983,-0.335,0.122,0.000,-6.104
-0.075,-0.986,-0.311,1.587,-0.916,-5.737
-0.069,-0.977,-0.287,2.136,-0.061,-3.113
-0.092,-0.970,-0.298,1.770,1.526,-1.221
-0.114,-0.965,-0.315,6.531,2.747,-0.427
-0.120,-0.941,-0.304,9.155,1.953,-0.854
-0.109,-0.932,-0.285,7.996,2.014,-0.061
-0.096,-0.935,-0.262,4.944,3.235,1.648
-0.096,-0.936,-0.264,-0.916,7.629,6.104
-0.117,-0.932,-0.310,-1.953,9.644,6.897
-0.131,-0.932,-0.340,-0.366,8.179,3.906
-0.135,-0.936,-0.363,1.404,4.517,1.465
-0.124,-0.935,-0.348,5.188,-1.465,-1.648
-0.100,-0.928,-0.298,5.615,-1.953,-1.770
-0.100,-0.925,-0.285,0.793,-0.366,0.488
-0.115,-0.927,-0.297,-2.197,0.610,1.465
-0.123,-0.929,-0.308,-3.601,1.465,1.343
-0.132,-0.933,-0.320,-2.625,0.732,-1.465
-0.127,-0.935,-0.317,-0.793,-0.977,-4.456
-0.105,-0.933,-0.303,0.183,-0.671,-4.822
-0.099,-0.928,-0.301,-0.488,1.221,-3.113
-0.105,-0.929,-0.302,-2.380,1.465,-2.319
-0.112,-0.971,-0.312,24.292,21.606,-10.986
-0.121,-0.980,-0.331,20.813,18.188,-12.207
-0.117,-0.986,-0.330,21.545,16.357,-13.062
-0.108,-0.980,-0.312,22.095,15.747,-13.367
-0.118,-0.981,-0.312,20.752,16.418,-12.634
-0.129,-0.987,-0.327,17.090,15.808,-10.010
-0.130,-0.981,-0.323,16.052,15.503,-8.667
-0.127,-0.975,-0.321,14.526,17.029,-6.104
-0.138,-0.961,-0.333,13.611,17.517,-5.127
-0.142,-0.952,-0.331,10.620,16.174,-5.005
-0.139,-0.951,-0.323,7.507,15.076,-5.066
-0.135,-0.960,-0.324,1.770,13.794,-3.296
-0.135,-0.967,-0.341,1.038,13.977,-1.404
-0.140,-0.959,-0.349,2.563,14.343,1.099
-0.153,-0.942,-0.362,2.808,13.367,0.977
-0.158,-0.938,-0.363,1.892,7.935,-1.221
-0.150,-0.941,-0.347,1.892,5.615,-2.686
-0.141,-0.945,-0.329,1.892,4.700,-2.747
-0.138,-0.949,-0.318,1.343,5.371,-1.221
-0.142,-0.944,-0.319,-0.488,7.446,1.953
-0.153,-0.927,-0.324,-1.953,8.362,2.625
-0.160,-0.927,-0.337,-3.784,7.874,2.869
-0.164,-0.928,-0.350,-3.174,6.653,2.991
-0.159,-0.924,-0.347,-0.732,4.578,2.563
-0.152,-0.920,-0.335,-0.244,3.906,1.770
-0.152,-0.923,-0.335,-0.366,2.625,0.244
-0.148,-0.932,-0.331,-0.366,1.953,0.183
-0.144,-0.932,-0.320,-1.587,1.648,1.892
-0.147,-0.927,-0.313,-2.991,2.380,3.052
-0.153,-0.926,-0.320,-4.578,4.578,3.784
0.072,-0.962,0.233,113.892,15.869,-36.865
0.061,-0.957,0.238,107.422,22.095,-31.128
0.037,-0.985,0.202,100.342,24.841,-30.334
0.027,-1.008,0.155,91.003,29.419,-31.494
0.008,-1.021,0.086,90.393,29.663,-32.776
0.007,-1.020,0.082,89.478,25.696,-38.452
0.026,-1.027,0.095,85.937,23.376,-40.833
0.039,-1.041,0.094,79.834,24.292,-41.870
0.029,-1.082,0.040,78.857,26.917,-39.429
0.012,-1.097,-0.006,79.895,26.855,-30.579
-0.008,-1.117,-0.071,83.435,23.804,-27.100
0.009,-1.128,-0.066,92.529,20.325,-24.902
0.043,-1.117,-0.010,92.651,22.339,-24.963
0.035,-1.106,-0.006,79.346,29.602,-26.306
0.005,-1.109,-0.056,70.007,30.151,-26.672
-0.001,-1.124,-0.090,60.059,28.198,-23.621
0.010,-1.146,-0.123,62.134,28.259,-19.348
0.021,-1.148,-0.121,73.730,36.499,-8.728
0.011,-1.124,-0.156,76.965,40.894,-2.380
-0.008,-1.099,-0.172,75.439,41.809,3.052
-0.045,-1.063,-0.192,71.472,39.124,0.916
-0.065,-1.054,-0.210,61.584,29.602,-7.629
-0.103,-1.033,-0.235,57.190,23.560,-13.489
-0.117,-1.022,-0.244,48.157,9.949,-28.137
-0.101,-1.038,-0.252,42.297,2.930,-35.583
-0.076,-1.066,-0.249,32.593,-4.578,-43.762
-0.045,-1.120,-0.246,30.640,-3.967,-42.542
-0.052,-1.124,-0.249,29.907,2.380,-34.485
-0.081,-1.100,-0.265,29.602,5.188,-31.067
-0.092,-1.086,-0.267,28.259,6.409,-28.198
0.227,-0.983,0.042,67.566,12.268,-54.871
0.297,-1.105,0.038,58.411,4.639,-67.200
0.294,-1.131,0.022,77.332,7.874,-56.274
0.245,-1.085,-0.006,85.449,10.254,-46.448
0.223,-1.045,0.007,90.271,12.207,-38.086
0.182,-0.965,0.045,86.487,14.832,-33.386
0.167,-0.965,0.027,79.407,15.869,-38.757
0.187,-1.039,-0.041,66.406,12.390,-49.988
0.208,-1.072,-0.055,64.880,11.536,-50.476
0.202,-1.079,-0.055,67.749,17.151,-42.847
0.174,-1.060,-0.059,67.688,21.057,-39.551
0.126,-1.030,-0.072,58.167,21.240,-40.771
0.117,-1.031,-0.075,50.171,17.639,-44.250
0.115,-1.050,-0.089,38.879,12.756,-50.903
0.137,-1.112,-0.125,37.659,10.925,-50.232
0.156,-1.133,-0.129,43.945,13.855,-39.307
0.150,-1.098,-0.107,47.974,19.714,-31.982
0.119,-1.055,-0.103,45.776,29.846,-24.963
0.078,-0.999,-0.111,38.208,29.785,-25.513
0.082,-1.003,-0.118,22.095,27.283,-25.696
0.085,-1.051,-0.182,20.508,28.198,-22.705
0.065,-1.054,-0.215,36.926,32.043,-16.296
0.030,-0.990,-0.204,46.814,33.325,-17.639
0.028,-0.961,-0.190,45.349,26.733,-26.550
0.031,-0.949,-0.184,36.926,21.240,-32.043
0.038,-0.964,-0.187,20.630,15.381,-39.246
0.036,-1.021,-0.238,16.724,14.709,-38.086
0.021,-1.042,-0.270,21.179,14.587,-30.884
-0.007,-1.052,-0.286,25.940,14.221,-27.710
-0.014,-1.046,-0.272,30.640,12.756,-23.743
0.026,-1.053,-0.202,83.679,32.837,-19.775
0.024,-1.046,-0.203,77.698,32.471,-26.794
0.054,-1.092,-0.237,70.007,31.311,-28.564
0.062,-1.119,-0.268,58.777,30.518,-23.865
0.048,-1.118,-0.293,57.678,31.189,-19.531
0.029,-1.101,-0.299,61.951,35.156,-13.855
-0.005,-1.074,-0.330,63.660,35.522,-12.268
0.000,-1.063,-0.322,60.364,31.738,-9.338
0.031,-1.059,-0.281,55.298,31.616,-6.348
0.004,-1.045,-0.287,50.537,34.424,-2.380
-0.096,-1.001,-0.374,48.523,40.588,-4.944
-0.108,-0.985,-0.385,45.898,35.706,-12.756
-0.058,-0.989,-0.341,31.433,20.752,-29.724
-0.033,-1.005,-0.327,22.583,18.066,-34.302
-0.022,-1.022,-0.326,7.996,19.958,-30.762
-0.019,-1.046,-0.344,3.906,22.339,-24.597
-0.024,-1.058,-0.350,4.089,30.945,-8.789
-0.080,-1.061,-0.402,9.399,36.255,-1.709
-0.127,-1.037,-0.428,24.475,38.269,-0.977
-0.123,-0.979,-0.389,26.245,32.776,-7.080
-0.085,-0.970,-0.350,14.832,23.437,-15.076
-0.058,-0.993,-0.382,8.728,24.292,-13.794
-0.070,-0.996,-0.416,6.592,26.184,-7.324
-0.110,-0.984,-0.442,8.972,25.269,-6.531
-0.126,-0.978,-0.447,14.160,18.066,-10.742
-0.106,-0.963,-0.403,14.160,13.306,-13.123
-0.093,-0.955,-0.375,7.812,10.803,-13.184
-0.099,-0.952,-0.384,4.395,12.695,-11.597
-0.107,-0.950,-0.401,1.892,15.930,-6.958
-0.132,-0.927,-0.403,1.160,16.296,-5.493
-0.010,-1.026,-0.149,72.998,15.015,-30.212
0.027,-1.058,-0.151,71.594,11.475,-27.588
0.031,-1.071,-0.155,70.557,11.597,-20.203
0.018,-1.088,-0.192,70.129,12.268,-15.747
0.014,-1.090,-0.206,69.031,10.315,-3.540
-0.007,-1.055,-0.208,71.045,11.475,1.099
-0.030,-1.036,-0.228,78.918,19.226,-3.479
-0.031,-1.020,-0.235,78.857,19.592,-8.667
-0.024,-1.021,-0.232,71.350,20.020,-19.043
-0.023,-1.048,-0.268,66.162,20.447,-23.315
-0.021,-1.056,-0.270,55.603,19.348,-27.466
-0.015,-1.082,-0.313,51.086,19.043,-27.100
-0.001,-1.096,-0.329,44.250,17.517,-19.470
0.037,-1.115,-0.327,43.091,18.677,-12.207
0.024,-1.104,-0.320,44.189,22.644,-4.028
-0.011,-1.067,-0.320,44.495,31.616,8.240
-0.030,-1.042,-0.318,39.124,31.250,13.184
-0.122,-1.001,-0.397,32.349,29.907,10.864
-0.144,-0.990,-0.435,32.837,26.245,0.671
-0.125,-0.981,-0.420,26.855,8.667,-21.057
-0.063,-0.995,-0.378,22.156,4.150,-27.283
-0.049,-1.012,-0.380,17.395,5.005,-27.405
-0.054,-1.019,-0.365,17.456,8.118,-22.949
-0.082,-1.012,-0.374,21.912,16.846,-16.663
-0.123,-0.983,-0.390,23.315,18.005,-16.541
-0.125,-0.971,-0.384,19.043,15.503,-18.616
-0.109,-0.972,-0.382,15.442,14.832,-18.921
-0.103,-0.978,-0.387,12.817,17.517,-15.381
-0.109,-0.985,-0.400,14.038,20.325,-12.024
-0.125,-0.977,-0.409,18.005,26.001,-7.568
0.163,-1.149,-0.235,80.200,18.250,-29.846
0.176,-1.172,-0.269,78.552,13.428,-21.973
0.177,-1.138,-0.245,80.688,13.184,-20.935
0.163,-1.116,-0.210,76.477,15.808,-23.926
0.124,-1.110,-0.202,69.763,16.174,-25.024
0.111,-1.115,-0.207,58.472,16.541,-26.123
0.111,-1.130,-0.200,54.871,17.639,-25.452
0.123,-1.135,-0.180,49.683,23.682,-16.235
0.094,-1.125,-0.199,50.598,30.762,-8.423
0.069,-1.104,-0.223,57.495,43.640,5.127
0.036,-1.053,-0.261,59.814,46.631,8.606
0.032,-1.033,-0.295,61.646,46.387,5.432
0.029,-0.989,-0.343,60.730,44.922,-1.282
0.028,-0.977,-0.366,57.190,42.053,-10.071
0.058,-0.991,-0.382,45.349,30.151,-26.367
0.071,-1.002,-0.382,40.100,26.123,-30.273
0.068,-1.004,-0.391,34.912,25.513,-30.273
0.044,-0.989,-0.395,33.630,26.001,-29.541
0.036,-0.993,-0.401,29.114,26.184,-26.733
0.021,-1.016,-0.435,28.076,26.428,-23.682
0.017,-1.019,-0.446,32.104,28.442,-14.771
0.005,-0.985,-0.434,35.278,30.823,-9.583
-0.023,-0.963,-0.439,35.950,34.058,-5.798
-0.065,-0.949,-0.466,32.471,30.640,-8.301
-0.047,-0.953,-0.447,24.780,23.193,-13.428
-0.014,-0.959,-0.425,22.339,24.902,-12.085
-0.026,-0.959,-0.457,20.203,30.334,-4.395
-0.058,-0.955,-0.508,20.447,29.602,-2.136
-0.064,-0.951,-0.503,20.630,24.597,-3.113
-0.067,-0.947,-0.490,19.714,22.644,-4.456
0.101,-1.097,-0.108,80.627,36.316,-3.906
0.104,-1.099,-0.115,70.984,35.706,-3.113
0.081,-1.115,-0.188,71.289,38.330,-5.859
0.066,-1.108,-0.213,71.838,33.264,-7.324
0.029,-1.044,-0.196,69.946,29.358,-10.681
0.032,-1.045,-0.201,57.556,19.653,-23.499
0.071,-1.099,-0.204,51.941,14.771,-26.001
0.079,-1.115,-0.210,52.429,19.897,-24.719
0.052,-1.105,-0.245,53.772,24.780,-23.071
0.042,-1.101,-0.260,50.720,24.902,-19.409
0.064,-1.088,-0.225,47.913,24.475,-16.846
0.050,-1.072,-0.220,43.274,33.752,-13.733
-0.048,-1.048,-0.325,42.297,35.217,-16.724
-0.050,-1.040,-0.339,33.875,18.677,-26.367
0.010,-1.051,-0.314,28.198,11.902,-28.748
0.020,-1.061,-0.325,26.917,12.024,-27.649
0.014,-1.046,-0.320,28.687,14.526,-25.269
0.012,-1.027,-0.304,28.320,16.846,-22.095
-0.026,-1.005,-0.324,21.545,20.447,-15.808
-0.055,-1.001,-0.356,19.592,20.752,-15.015
-0.072,-0.989,-0.388,21.790,15.259,-18.311
-0.059,-0.980,-0.372,24.109,11.963,-20.447
-0.051,-0.966,-0.341,22.949,9.827,-20.447
-0.062,-0.969,-0.354,19.592,10.254,-18.982
-0.071,-0.979,-0.372,15.686,9.949,-16.663
-0.074,-0.982,-0.383,15.625,9.827,-15.137
-0.077,-0.981,-0.387,16.235,10.071,-10.620
-0.077,-0.969,-0.369,15.564,10.864,-8.606
-0.085,-0.964,-0.369,11.719,11.108,-5.859
-0.087,-0.966,-0.379,9.460,9.644,-5.493
-0.193,-1.005,-0.377,53.406,20.874,-17.029
-0.149,-0.997,-0.349,49.927,13.733,-26.123
-0.117,-1.002,-0.324,38.269,9.888,-31.921
-0.080,-1.008,-0.272,30.396,14.282,-29.236
-0.085,-1.026,-0.289,15.686,25.269,-15.930
-0.130,-1.064,-0.382,14.648,29.114,-7.568
-0.165,-1.060,-0.417,27.222,31.738,1.221
-0.200,-1.000,-0.392,33.752,30.457,-0.732
-0.187,-0.970,-0.352,29.541,25.696,-10.681
-0.138,-0.963,-0.320,20.264,24.292,-13.245
-0.125,-0.976,-0.335,5.798,27.832,-7.996
-0.141,-0.981,-0.390,4.517,32.166,-2.991
-0.176,-0.969,-0.422,10.986,36.621,0.671
-0.250,-0.941,-0.473,16.174,32.898,-4.578
-0.237,-0.928,-0.457,19.226,15.930,-19.287
-0.168,-0.915,-0.386,15.808,10.620,-22.583
-0.156,-0.917,-0.373,7.568,10.864,-21.301
-0.161,-0.920,-0.368,4.089,12.756,-18.860
-0.175,-0.928,-0.381,1.282,17.456,-12.085
-0.241,-0.933,-0.441,4.578,19.104,-10.193
-0.256,-0.915,-0.452,13.428,13.489,-13.550
-0.225,-0.879,-0.411,14.587,8.911,-16.174
-0.203,-0.881,-0.381,9.521,6.104,-15.991
-0.190,-0.904,-0.338,4.883,8.179,-12.939
-0.206,-0.917,-0.352,-0.244,16.296,-6.165
-0.242,-0.921,-0.425,1.221,18.616,-4.272
-0.234,-0.908,-0.433,6.653,16.235,-3.235
-0.217,-0.891,-0.417,7.751,15.076,-2.747
-0.226,-0.894,-0.417,7.446,13.489,-1.709
-0.232,-0.892,-0.385,6.226,12.268,-1.648
-0.153,-0.874,-0.462,22.827,33.813,-4.333
-0.121,-0.873,-0.439,16.663,22.278,-17.944
-0.110,-0.865,-0.410,16.174,23.437,-19.531
-0.126,-0.857,-0.403,12.146,26.733,-18.860
-0.177,-0.861,-0.427,9.338,25.879,-20.691
-0.185,-0.873,-0.438,4.211,15.381,-29.602
-0.150,-0.900,-0.396,1.221,10.132,-33.081
-0.132,-0.922,-0.365,-5.127,9.521,-30.701
-0.141,-0.963,-0.350,-6.653,13.489,-25.146
-0.167,-0.968,-0.373,-3.662,20.874,-16.113
-0.217,-0.962,-0.434,0.244,20.325,-16.174
-0.214,-0.957,-0.429,6.348,11.658,-19.775
-0.176,-0.944,-0.348,5.981,8.667,-19.592
-0.178,-0.941,-0.318,-2.136,9.644,-15.686
-0.233,-0.949,-0.341,-6.409,10.193,-15.320
-0.248,-0.957,-0.359,-9.277,4.822,-18.677
-0.242,-0.968,-0.344,-9.277,1.282,-19.836
-0.240,-0.975,-0.336,-7.446,-2.502,-19.104
-0.234,-0.977,-0.311,-5.127,-2.441,-17.883
-0.215,-0.964,-0.294,-4.028,2.380,-11.902
-0.205,-0.936,-0.337,-5.249,6.836,-7.935
-0.217,-0.920,-0.386,-3.357,10.498,-3.296
-0.223,-0.873,-0.442,0.671,8.728,-3.540
-0.209,-0.847,-0.440,8.972,3.479,-6.958
-0.171,-0.805,-0.397,9.338,1.709,-8.057
-0.167,-0.794,-0.387,0.183,1.404,-7.629
-0.187,-0.803,-0.440,-5.920,2.319,-6.836
-0.211,-0.823,-0.510,-8.545,0.488,-5.798
-0.245,-0.849,-0.584,-3.235,-4.150,-7.080
-0.229,-0.848,-0.537,3.845,-12.268,-10.193
-0.039,-0.988,-0.107,91.797,35.095,-9.094
-0.119,-0.937,-0.177,88.501,37.354,-15.747
-0.121,-0.995,-0.281,77.271,31.677,-36.621
-0.102,-1.038,-0.322,71.960,25.940,-44.617
-0.037,-1.088,-0.318,67.017,16.052,-50.049
-0.008,-1.089,-0.284,65.247,15.442,-48.767
-0.045,-1.067,-0.294,61.157,25.818,-45.349
-0.085,-1.068,-0.338,58.228,31.494,-46.448
-0.141,-1.074,-0.397,50.171,28.503,-49.255
-0.153,-1.076,-0.412,48.096,23.193,-50.537
-0.151,-1.088,-0.415,49.072,13.062,-50.842
-0.147,-1.094,-0.406,52.002,10.376,-49.011
-0.136,-1.108,-0.351,59.204,11.963,-42.786
-0.142,-1.106,-0.329,59.875,14.709,-38.147
-0.154,-1.101,-0.323,52.551,20.996,-29.785
-0.170,-1.100,-0.348,46.082,23.193,-26.428
-0.168,-1.100,-0.360,32.898,24.963,-19.165
-0.160,-1.101,-0.422,29.114,25.208,-14.587
-0.153,-1.095,-0.440,28.931,23.315,-3.601
-0.139,-1.063,-0.383,28.015,22.949,2.930
-0.182,-1.039,-0.378,24.170,25.452,8.545
-0.271,-1.003,-0.502,24.475,21.057,2.075
-0.232,-0.976,-0.496,20.325,-2.991,-13.062
-0.145,-0.947,-0.393,14.954,-8.484,-16.541
-0.155,-0.954,-0.376,1.770,-7.080,-15.442
-0.201,-0.970,-0.374,-2.563,-5.798,-13.733
-0.212,-0.967,-0.371,-3.967,-1.587,-11.353
-0.213,-0.951,-0.385,-2.014,0.610,-9.705
-0.221,-0.941,-0.397,2.808,3.601,-5.554
-0.244,-0.927,-0.429,5.249,2.869,-4.517
-0.162,-1.027,-0.326,45.898,23.560,-22.400
-0.147,-1.047,-0.346,36.682,14.099,-37.415
-0.077,-1.113,-0.362,30.823,7.507,-39.490
-0.038,-1.130,-0.343,23.987,3.845,-31.067
0.002,-1.146,-0.311,22.461,8.240,-21.240
-0.017,-1.145,-0.312,24.170,22.644,0.122
-0.116,-1.103,-0.332,25.879,27.588,6.287
-0.162,-1.074,-0.358,25.391,23.376,1.709
-0.127,-1.035,-0.357,21.790,14.526,-2.808
-0.083,-1.021,-0.331,15.625,7.446,-2.869
-0.058,-0.999,-0.322,13.977,11.292,1.648
-0.083,-0.982,-0.329,10.193,19.226,10.315
-0.156,-0.957,-0.359,9.216,20.752,9.277
-0.165,-0.949,-0.363,6.836,15.137,-1.282
-0.148,-0.946,-0.362,4.517,10.437,-5.737
-0.136,-0.952,-0.366,1.892,5.127,-9.216
-0.123,-0.957,-0.327,1.221,4.761,-8.484
-0.129,-0.961,-0.307,-2.563,7.874,-6.104
-0.183,-0.979,-0.343,-3.662,9.216,-6.165
-0.201,-0.990,-0.379,1.038,4.578,-11.780
-0.170,-0.987,-0.380,5.127,-0.244,-14.160
-0.151,-0.978,-0.354,11.963,-3.052,-13.855
-0.142,-0.952,-0.283,11.414,-1.709,-11.841
-0.146,-0.947,-0.261,1.404,3.113,-7.751
-0.163,-0.968,-0.289,-3.906,5.981,-5.676
-0.175,-0.979,-0.327,-4.150,11.108,-1.648
-0.185,-0.971,-0.370,0.549,11.780,-0.671
-0.184,-0.955,-0.358,7.202,10.681,-1.465
-0.174,-0.933,-0.323,6.592,9.644,-2.686
-0.166,-0.930,-0.311,-0.793,7.568,-3.601
0.056,-0.955,0.166,143.250,6.653,-40.955
0.057,-0.967,0.153,127.747,-1.831,-50.293
0.063,-0.979,0.153,122.253,-4.822,-53.223
0.055,-0.973,0.135,119.324,-6.042,-54.932
0.035,-0.954,0.098,119.873,-5.798,-54.993
0.025,-0.948,0.091,119.263,-4.944,-53.345
-0.027,-0.940,0.064,118.591,-4.639,-52.002
-0.056,-0.936,0.060,118.713,-5.676,-52.368
-0.047,-1.000,0.029,118.530,-5.432,-53.223
-0.024,-1.053,-0.006,118.652,-4.822,-46.631
0.002,-1.109,-0.040,120.728,-3.357,-39.551
-0.007,-1.099,-0.027,121.948,3.601,-25.818
-0.066,-1.046,-0.014,117.310,7.568,-23.010
-0.100,-1.035,-0.035,101.746,12.817,-29.419
-0.110,-1.072,-0.092,94.238,12.573,-35.095
-0.092,-1.106,-0.116,86.426,9.949,-37.964
-0.049,-1.161,-0.154,83.313,8.362,-31.494
-0.036,-1.175,-0.157,78.369,11.475,-10.254
-0.107,-1.144,-0.162,78.796,17.090,-0.183
-0.175,-1.103,-0.187,82.825,27.161,2.686
-0.210,-1.064,-0.202,81.787,26.855,-6.042
-0.167,-1.078,-0.175,67.749,22.278,-22.888
-0.129,-1.123,-0.181,57.800,23.010,-24.597
-0.146,-1.138,-0.232,47.485,25.269,-21.729
-0.176,-1.154,-0.327,49.683,23.499,-21.301
-0.177,-1.150,-0.341,59.692,15.198,-26.428
-0.131,-1.136,-0.270,59.570,10.254,-29.968
-0.103,-1.134,-0.224,53.772,7.019,-31.433
-0.102,-1.148,-0.233,33.752,8.789,-25.879
-0.118,-1.158,-0.263,26.123,11.047,-20.813
0.086,-1.204,-0.066,155.396,36.499,16.052
-0.027,-1.059,-0.071,153.198,49.133,21.118
-0.088,-0.995,-0.144,142.944,46.997,5.554
-0.055,-1.040,-0.155,117.249,33.875,-25.696
-0.018,-1.156,-0.222,111.816,33.447,-35.278
-0.026,-1.182,-0.265,105.286,30.884,-43.579
-0.007,-1.177,-0.235,97.046,26.794,-44.006
-0.010,-1.174,-0.221,81.543,25.757,-42.847
-0.081,-1.194,-0.283,79.407,27.039,-43.457
-0.110,-1.203,-0.290,78.247,24.231,-45.471
-0.128,-1.210,-0.238,75.623,23.987,-46.570
-0.106,-1.222,-0.215,63.660,26.611,-44.189
-0.046,-1.255,-0.264,57.922,29.663,-38.208
-0.039,-1.261,-0.317,54.749,33.447,-29.724
-0.070,-1.230,-0.374,56.213,37.598,-13.245
-0.082,-1.203,-0.364,57.373,36.926,-8.118
-0.088,-1.146,-0.343,52.795,32.959,-3.723
-0.087,-1.117,-0.351,46.936,30.701,-3.662
-0.080,-1.078,-0.366,35.095,25.024,-4.333
-0.077,-1.061,-0.354,29.846,21.790,-3.174
-0.094,-1.041,-0.349,22.583,19.348,-2.258
-0.139,-1.002,-0.386,20.081,17.517,-5.005
-0.135,-0.982,-0.395,14.648,8.118,-10.803
-0.099,-0.971,-0.370,12.451,4.883,-11.414
-0.093,-0.978,-0.353,8.911,6.409,-6.897
-0.133,-1.006,-0.373,8.606,9.155,-3.418
-0.163,-1.011,-0.399,14.587,9.766,-1.282
-0.145,-1.001,-0.401,17.517,6.958,-2.869
-0.119,-0.996,-0.385,16.418,3.357,-4.761
-0.109,-1.005,-0.386,12.756,3.174,-4.150
-0.143,-1.114,-0.213,8.423,0.549,-18.616
-0.155,-1.081,-0.206,8.057,1.404,-15.625
-0.158,-1.071,-0.197,5.615,1.099,-15.198
-0.157,-1.085,-0.193,-4.456,-1.099,-13.794
-0.152,-1.102,-0.213,-8.301,-1.953,-11.841
-0.125,-1.094,-0.222,-7.141,-0.061,-3.052
-0.125,-1.069,-0.213,-4.517,3.357,2.686
-0.159,-1.019,-0.216,-3.662,9.521,10.864
-0.174,-1.003,-0.232,-5.737,9.644,12.390
-0.169,-0.982,-0.249,-8.545,6.042,12.451
-0.165,-0.969,-0.251,-7.935,5.127,12.146
-0.173,-0.943,-0.257,-4.395,5.859,10.864
-0.177,-0.935,-0.255,-3.601,5.615,9.644
-0.177,-0.930,-0.255,-5.127,3.540,5.676
-0.163,-0.937,-0.255,-6.409,2.502,3.967
-0.156,-0.945,-0.251,-7.874,2.258,3.967
-0.150,-0.952,-0.243,-8.301,3.113,5.615
-0.151,-0.952,-0.243,-10.742,4.395,9.338
-0.157,-0.956,-0.253,-12.268,4.578,10.742
-0.162,-0.960,-0.258,-13.672,4.456,11.963
-0.167,-0.963,-0.252,-13.733,4.089,12.146
-0.165,-0.965,-0.244,-15.015,3.113,12.329
-0.157,-0.971,-0.232,-16.602,2.747,12.634
-0.153,-0.973,-0.231,-18.860,3.418,13.977
-0.156,-0.973,-0.240,-18.311,3.967,14.771
-0.157,-0.967,-0.235,-15.930,4.150,15.503
-0.157,-0.953,-0.214,-15.808,3.723,15.137
-0.157,-0.953,-0.204,-16.968,2.258,13.000
-0.150,-0.960,-0.198,-16.846,1.587,11.902
-0.144,-0.958,-0.199,-14.954,0.977,10.498
-0.078,-1.135,-0.217,68.726,9.094,-46.387
-0.119,-1.126,-0.227,67.688,8.972,-41.870
-0.138,-1.113,-0.213,60.303,9.460,-36.499
-0.156,-1.114,-0.210,54.993,9.705,-34.912
-0.159,-1.120,-0.227,48.706,9.888,-28.687
-0.154,-1.123,-0.262,47.546,10.437,-24.780
-0.158,-1.117,-0.283,45.532,9.644,-19.348
-0.164,-1.101,-0.303,44.495,7.568,-19.043
-0.157,-1.098,-0.280,38.574,4.761,-19.897
-0.163,-1.094,-0.231,33.020,5.554,-19.531
-0.177,-1.094,-0.240,23.315,7.874,-18.494
-0.184,-1.095,-0.274,21.423,7.019,-17.456
-0.174,-1.099,-0.278,21.973,6.775,-14.648
-0.172,-1.100,-0.278,23.071,7.874,-11.902
-0.183,-1.092,-0.285,24.353,8.911,-6.958
-0.172,-1.060,-0.263,23.499,8.179,-5.005
-0.163,-1.043,-0.250,17.334,9.583,-1.160
-0.178,-1.012,-0.271,13.123,10.864,0.244
-0.189,-1.003,-0.288,6.226,9.827,-1.343
-0.192,-1.005,-0.302,4.089,7.874,-3.235
-0.192,-1.007,-0.309,2.686,3.662,-5.310
-0.180,-0.990,-0.292,2.686,1.892,-5.249
-0.173,-0.976,-0.277,1.282,1.587,-3.540
-0.179,-0.961,-0.280,0.061,2.441,-2.258
-0.186,-0.959,-0.284,-1.160,3.601,-1.160
-0.187,-0.971,-0.280,-1.221,4.150,-1.343
-0.181,-0.978,-0.278,-0.977,5.310,-0.122
-0.173,-0.969,-0.289,-0.244,6.592,1.648
-0.177,-0.955,-0.300,1.648,8.667,5.432
-0.195,-0.929,-0.313,2.197,8.179,6.165
-0.028,-0.995,-0.259,63.171,-1.282,-68.298
0.007,-1.042,-0.249,60.242,0.916,-77.332
0.027,-1.095,-0.267,65.430,8.667,-71.045
-0.046,-1.051,-0.303,73.914,24.048,-51.636
-0.079,-1.033,-0.310,68.054,30.884,-47.485
-0.107,-1.048,-0.319,59.998,30.701,-49.011
-0.098,-1.064,-0.322,46.814,34.302,-51.514
-0.089,-1.095,-0.396,44.128,37.903,-50.842
-0.100,-1.098,-0.439,43.152,38.879,-46.631
-0.131,-1.094,-0.465,42.053,36.987,-46.082
-0.143,-1.102,-0.466,35.339,32.227,-51.025
-0.129,-1.150,-0.474,30.396,28.381,-53.284
-0.105,-1.178,-0.473,23.621,21.484,-49.744
-0.080,-1.199,-0.466,22.705,20.081,-43.274
-0.090,-1.187,-0.471,23.071,19.226,-27.893
-0.130,-1.142,-0.462,23.437,17.151,-22.278
-0.151,-1.117,-0.443,23.560,14.282,-19.775
-0.166,-1.087,-0.410,19.409,5.981,-21.484
-0.157,-1.076,-0.394,10.376,-1.404,-18.555
-0.148,-1.041,-0.374,7.751,-1.587,-14.648
-0.161,-1.014,-0.371,7.324,1.892,-7.263
-0.211,-0.965,-0.381,7.751,3.296,-6.226
-0.226,-0.947,-0.383,6.836,2.319,-8.789
-0.224,-0.927,-0.375,5.432,1.221,-10.803
-0.223,-0.924,-0.374,2.319,-0.793,-13.306
-0.221,-0.924,-0.372,1.343,-1.526,-13.672
-0.219,-0.926,-0.372,0.366,-1.526,-13.306
-0.214,-0.929,-0.388,-1.038,0.427,-10.681
-0.210,-0.926,-0.393,0.183,2.869,-8.423
-0.207,-0.917,-0.408,0.671,3.723,-7.935
-0.180,-1.087,-0.374,21.790,-0.366,-31.982
-0.183,-1.070,-0.355,18.494,1.038,-25.146
-0.206,-1.033,-0.344,16.724,2.747,-21.484
-0.228,-1.019,-0.352,13.977,4.639,-17.578
-0.250,-0.992,-0.354,12.695,3.540,-17.029
-0.244,-0.977,-0.343,11.841,2.563,-16.113
-0.238,-0.947,-0.325,12.695,4.456,-15.320
-0.247,-0.938,-0.330,12.939,8.606,-14.893
-0.261,-0.937,-0.347,11.047,8.545,-15.137
-0.253,-0.945,-0.349,6.775,6.226,-14.160
-0.226,-0.967,-0.351,6.409,6.836,-11.658
-0.222,-0.971,-0.368,10.437,11.536,-4.333
-0.216,-0.955,-0.372,12.695,12.512,-0.793
-0.208,-0.945,-0.353,10.132,13.000,4.700
-0.208,-0.944,-0.351,5.920,13.550,7.446
-0.227,-0.944,-0.382,2.930,14.160,9.216
-0.231,-0.934,-0.425,4.395,11.963,7.629
-0.217,-0.921,-0.408,6.104,9.216,6.409
-0.214,-0.902,-0.390,4.150,6.531,4.333
-0.216,-0.902,-0.393,1.099,4.883,2.686
-0.209,-0.912,-0.395,-2.563,0.549,0.366
-0.196,-0.939,-0.392,-1.770,-0.061,1.282
-0.193,-0.942,-0.384,1.221,1.404,6.409
-0.197,-0.923,-0.369,1.709,2.686,8.972
-0.204,-0.915,-0.379,1.160,3.540,11.475
-0.219,-0.905,-0.399,0.977,2.502,11.475
-0.218,-0.900,-0.393,0.488,0.305,9.521
-0.208,-0.904,-0.379,-0.488,-0.183,8.301
-0.205,-0.911,-0.379,-2.014,-0.488,7.629
-0.200,-0.913,-0.366,-2.197,-0.183,8.484
-0.164,-1.016,-0.345,9.949,0.854,-23.743
-0.154,-1.039,-0.368,11.414,0.427,-19.653
-0.136,-1.048,-0.356,13.367,0.854,-6.409
-0.092,-1.066,-0.308,12.573,3.784,2.991
-0.087,-1.065,-0.304,11.169,16.235,24.353
-0.176,-1.012,-0.364,14.526,23.560,29.907
-0.226,-0.974,-0.411,23.987,25.757,16.968
-0.201,-0.927,-0.406,21.851,16.785,6.287
-0.164,-0.924,-0.384,7.996,2.258,-7.019
-0.132,-0.937,-0.395,2.686,0.244,-9.094
-0.137,-0.938,-0.404,0.488,-0.366,-10.010
-0.143,-0.937,-0.403,1.404,-0.427,-10.071
-0.145,-0.936,-0.402,2.441,-1.587,-7.507
-0.170,-0.923,-0.411,3.540,-2.380,-6.470
-0.173,-0.914,-0.402,6.165,-3.967,-7.568
-0.154,-0.900,-0.360,5.066,-3.540,-7.812
-0.147,-0.895,-0.349,-2.258,1.038,-6.104
-0.167,-0.896,-0.392,-5.920,3.174,-5.371
-0.177,-0.902,-0.419,-7.385,2.930,-4.822
-0.175,-0.916,-0.427,-5.920,1.831,-4.089
-0.174,-0.921,-0.425,-2.930,0.000,-0.916
-0.169,-0.922,-0.413,-1.282,-0.732,1.160
-0.168,-0.917,-0.402,1.648,0.183,4.578
-0.176,-0.898,-0.393,1.404,0.977,5.249
-0.178,-0.894,-0.389,-2.502,0.366,4.089
-0.181,-0.891,-0.381,-4.761,-0.061,3.113
-0.182,-0.894,-0.384,-6.897,0.122,2.258
-0.190,-0.905,-0.399,-6.409,0.000,2.747
-0.188,-0.906,-0.395,-2.258,-0.427,3.845
-0.179,-0.895,-0.375,-0.488,0.305,4.150