aX,aY,aZ,gX,gY,gZ
-0.001,-1.034,0.428,43.579,14.771,-38.391
0.032,-1.056,0.442,37.659,9.705,-36.499
0.041,-1.074,0.467,23.804,-1.099,-28.564
0.051,-1.084,0.481,19.531,-3.845,-21.179
0.040,-1.060,0.467,20.203,-0.610,-1.587
-0.036,-0.984,0.462,22.522,3.357,6.775
-0.085,-0.952,0.476,20.935,6.042,12.207
-0.135,-0.921,0.506,16.602,3.967,9.644
-0.132,-0.920,0.511,7.751,1.587,3.296
-0.119,-0.927,0.499,5.249,2.319,1.404
-0.115,-0.934,0.495,2.991,3.174,-2.563
-0.088,-0.950,0.512,2.502,2.625,-5.066
-0.074,-0.960,0.525,0.366,3.601,-7.446
-0.077,-0.976,0.472,-0.916,4.395,-6.775
-0.066,-0.973,0.458,1.892,5.981,-5.371
-0.037,-0.954,0.460,2.991,7.019,-3.174
-0.043,-0.948,0.448,1.404,6.348,1.709
-0.052,-0.932,0.444,0.610,4.395,2.136
-0.049,-0.921,0.457,0.000,2.502,1.465
-0.047,-0.908,0.465,-3.235,1.404,1.709
-0.049,-0.903,0.455,-4.822,2.747,3.540
-0.069,-0.892,0.438,-3.906,5.737,7.263
-0.073,-0.886,0.447,-2.747,6.042,7.812
-0.072,-0.884,0.460,-3.113,4.944,6.470
-0.066,-0.882,0.461,-3.784,4.456,5.310
-0.062,-0.883,0.458,-3.296,4.272,2.930
-0.053,-0.890,0.465,-3.235,4.395,1.953
-0.046,-0.898,0.469,-4.883,3.967,0.610
-0.037,-0.917,0.466,-4.944,3.906,0.732
-0.038,-0.915,0.466,-3.601,5.127,2.808
0.064,-0.635,0.490,177.734,-19.592,-36.682
0.091,-0.706,0.501,176.697,-25.879,-37.231
0.097,-0.775,0.549,177.979,-20.142,-30.151
0.067,-0.775,0.565,174.927,2.014,-16.663
-0.026,-0.740,0.540,166.809,11.414,-15.808
-0.073,-0.726,0.501,138.062,11.169,-27.588
-0.126,-0.740,0.469,122.803,1.831,-37.842
-0.127,-0.757,0.499,101.318,-7.263,-58.960
-0.105,-0.799,0.526,94.299,-3.296,-64.758
-0.093,-0.811,0.517,88.440,8.911,-63.416
-0.075,-0.813,0.478,88.623,16.418,-58.777
-0.060,-0.808,0.439,89.966,29.053,-46.326
-0.020,-0.792,0.338,91.919,31.982,-39.978
-0.007,-0.782,0.327,98.450,33.813,-31.494
-0.034,-0.791,0.369,98.816,34.424,-29.602
-0.069,-0.809,0.389,89.539,29.602,-31.677
-0.097,-0.842,0.441,81.360,23.621,-36.438
-0.077,-0.854,0.461,59.326,11.108,-46.448
-0.059,-0.892,0.416,48.279,6.287,-49.072
-0.062,-0.926,0.382,36.560,-4.028,-53.345
-0.021,-0.990,0.394,35.522,-9.827,-54.504
0.015,-1.007,0.427,34.668,-14.954,-45.349
0.012,-1.036,0.472,33.630,-12.695,-35.095
-0.016,-1.043,0.489,31.799,-5.249,-14.221
-0.052,-1.031,0.542,29.663,-2.502,-6.470
-0.065,-1.026,0.551,22.766,2.136,4.333
-0.091,-1.022,0.506,20.996,4.395,7.568
-0.095,-1.011,0.489,23.743,4.761,9.399
-0.098,-1.004,0.526,25.574,3.540,8.118
-0.097,-1.014,0.564,25.330,2.380,6.042
0.070,-0.537,0.685,106.812,-23.315,-40.283
0.075,-0.576,0.680,117.310,-10.315,-31.616
0.056,-0.623,0.654,124.939,-1.160,-23.682
0.022,-0.626,0.638,139.160,16.602,-15.747
-0.014,-0.637,0.600,143.127,22.339,-16.602
-0.015,-0.641,0.594,139.587,23.560,-20.020
-0.035,-0.636,0.603,133.850,25.085,-24.292
-0.049,-0.642,0.596,125.916,28.259,-30.823
-0.064,-0.681,0.534,105.408,28.198,-44.250
-0.069,-0.711,0.500,97.351,24.841,-49.683
-0.074,-0.743,0.485,91.003,20.142,-59.937
-0.053,-0.823,0.492,89.050,18.982,-64.575
-0.034,-0.864,0.490,82.397,15.869,-67.261
0.006,-0.928,0.493,80.078,15.564,-64.819
0.024,-0.940,0.500,78.491,23.376,-52.246
0.013,-0.926,0.479,77.637,30.029,-44.250
-0.009,-0.914,0.476,70.679,34.180,-34.790
-0.026,-0.915,0.494,62.988,31.067,-35.156
-0.010,-0.933,0.488,42.358,18.921,-39.734
0.033,-0.974,0.470,34.058,13.123,-40.405
0.050,-0.979,0.460,25.330,5.737,-34.241
0.062,-0.957,0.454,23.804,3.601,-28.198
0.053,-0.938,0.447,23.193,2.136,-15.930
0.016,-0.906,0.440,23.437,1.221,-11.108
0.002,-0.893,0.465,23.682,-0.366,-7.751
-0.026,-0.888,0.525,21.667,-2.380,-3.540
-0.041,-0.894,0.529,17.212,-2.197,-0.916
-0.063,-0.907,0.522,17.090,-1.709,-0.427
-0.067,-0.913,0.527,18.066,-1.404,-0.549
-0.050,-0.928,0.543,19.897,-1.038,-2.136
0.212,-0.238,0.987,114.807,-5.249,3.723
0.164,-0.229,0.964,98.267,4.944,11.841
0.074,-0.234,0.814,90.027,2.197,7.446
0.054,-0.244,0.786,85.937,-5.676,-1.038
0.064,-0.306,0.835,87.585,-16.663,-18.494
0.072,-0.347,0.826,88.745,-14.832,-22.156
0.074,-0.377,0.781,93.323,-6.531,-19.531
0.076,-0.396,0.729,96.863,-4.028,-15.869
0.071,-0.401,0.726,98.145,0.488,-10.681
0.046,-0.441,0.642,96.924,2.747,-11.780
0.044,-0.473,0.570,99.365,-3.601,-16.907
0.047,-0.536,0.538,105.408,-9.460,-17.883
0.045,-0.558,0.573,121.765,-2.625,-17.700
0.025,-0.605,0.604,124.451,6.836,-17.822
0.015,-0.635,0.587,117.615,16.663,-17.883
0.014,-0.673,0.545,113.708,17.090,-17.212
0.002,-0.683,0.530,107.788,19.043,-19.714
-0.044,-0.703,0.485,105.469,20.996,-24.902
-0.049,-0.716,0.457,99.670,16.479,-36.072
-0.035,-0.736,0.461,96.802,12.512,-39.368
-0.032,-0.741,0.464,94.604,12.878,-41.870
-0.048,-0.772,0.408,88.989,18.616,-48.950
-0.065,-0.803,0.389,85.876,16.235,-54.077
-0.052,-0.883,0.426,80.688,7.385,-65.308
-0.037,-0.917,0.459,78.430,6.226,-67.566
-0.032,-0.941,0.473,74.951,11.963,-65.125
-0.034,-0.984,0.471,72.876,14.099,-62.622
-0.039,-1.007,0.476,67.627,17.090,-55.176
-0.028,-1.035,0.462,65.796,19.165,-49.927
-0.012,-1.034,0.448,64.087,22.522,-37.720
0.068,-0.115,0.755,100.220,13.184,6.042
0.063,-0.128,0.779,113.220,2.258,0.732
0.081,-0.203,0.817,112.671,-1.709,-2.197
0.072,-0.223,0.811,107.788,0.061,-6.287
0.000,-0.206,0.775,104.736,4.395,-10.681
-0.028,-0.198,0.748,92.834,2.686,-26.733
-0.026,-0.274,0.688,86.609,-1.404,-37.476
0.008,-0.343,0.664,82.031,-6.348,-51.697
0.061,-0.432,0.616,84.106,-5.493,-51.514
0.067,-0.461,0.597,92.957,-0.549,-39.124
0.022,-0.488,0.582,98.511,2.686,-30.701
-0.013,-0.488,0.578,111.206,13.123,-24.292
-0.021,-0.542,0.554,112.854,15.686,-25.818
-0.010,-0.591,0.529,106.445,10.132,-25.574
0.018,-0.691,0.508,103.394,6.104,-21.240
0.038,-0.716,0.534,104.858,13.062,-10.193
-0.003,-0.730,0.518,110.657,25.574,-8.118
-0.043,-0.729,0.476,119.019,39.124,-15.015
-0.079,-0.738,0.462,115.479,34.424,-22.705
-0.063,-0.766,0.479,96.497,16.968,-37.781
-0.020,-0.828,0.509,86.365,11.414,-42.908
-0.029,-0.860,0.494,76.294,10.620,-52.979
-0.038,-0.943,0.453,75.378,8.362,-57.373
-0.017,-0.975,0.484,73.547,1.404,-57.068
0.026,-1.010,0.569,72.144,5.432,-52.063
0.034,-1.017,0.566,70.007,13.428,-44.922
0.010,-1.010,0.523,64.514,24.414,-28.931
-0.016,-0.998,0.515,63.110,26.611,-23.499
-0.031,-0.978,0.501,60.913,26.611,-20.996
-0.017,-0.967,0.499,58.716,23.437,-20.447
-0.017,-0.446,0.630,109.680,26.367,-26.428
0.007,-0.538,0.573,113.159,23.010,-29.358
0.034,-0.599,0.576,113.586,12.512,-32.654
0.105,-0.708,0.567,111.572,10.071,-32.104
0.120,-0.739,0.550,112.061,10.986,-24.719
0.097,-0.752,0.544,114.929,12.695,-19.226
0.072,-0.741,0.557,117.493,17.090,-12.512
0.026,-0.723,0.576,114.807,18.555,-13.916
0.010,-0.724,0.575,101.501,16.357,-23.071
-0.010,-0.732,0.586,94.177,15.320,-27.893
-0.017,-0.737,0.594,83.069,20.020,-34.424
-0.046,-0.732,0.601,78.735,24.048,-37.048
-0.060,-0.740,0.584,68.909,27.893,-44.128
-0.059,-0.764,0.538,63.965,25.269,-47.791
-0.047,-0.789,0.536,60.364,20.142,-53.040
-0.026,-0.868,0.555,60.791,20.081,-52.673
-0.021,-0.893,0.568,62.195,24.475,-46.692
-0.017,-0.907,0.569,61.523,27.100,-43.701
-0.016,-0.917,0.576,54.749,27.649,-41.443
-0.002,-0.959,0.600,49.438,26.550,-40.405
0.018,-0.972,0.604,39.368,27.771,-32.654
0.069,-0.970,0.581,35.461,31.189,-26.001
0.083,-0.967,0.557,28.931,36.438,-10.010
0.072,-0.958,0.503,26.550,36.072,-3.540
0.065,-0.947,0.490,24.048,28.564,0.916
0.082,-0.925,0.507,22.400,22.644,0.610
0.088,-0.913,0.521,17.273,13.000,2.014
0.065,-0.895,0.531,14.587,10.010,2.869
0.055,-0.890,0.538,12.146,6.958,2.869
0.056,-0.882,0.558,8.728,1.709,1.709
-0.033,-0.225,0.703,37.476,-27.161,-57.922
0.069,-0.438,0.653,38.025,-35.034,-65.918
0.112,-0.519,0.654,71.289,-22.766,-51.086
0.125,-0.561,0.704,92.163,-7.629,-35.156
0.101,-0.544,0.712,119.812,23.499,-7.019
0.032,-0.514,0.669,124.939,32.532,1.526
0.012,-0.516,0.635,123.779,36.438,2.625
0.029,-0.553,0.577,121.765,34.607,-2.441
0.045,-0.573,0.575,117.432,29.175,-11.414
0.054,-0.597,0.602,111.633,27.466,-15.015
0.040,-0.610,0.598,93.262,23.071,-24.597
0.021,-0.655,0.565,84.900,18.555,-30.945
0.022,-0.686,0.570,74.890,6.531,-42.786
0.036,-0.754,0.611,72.571,3.967,-46.997
0.043,-0.782,0.600,70.801,7.507,-47.668
0.030,-0.829,0.572,71.289,7.568,-46.692
0.022,-0.860,0.602,72.021,2.563,-49.927
0.045,-0.920,0.708,68.970,1.160,-51.880
0.070,-0.933,0.745,56.091,5.493,-46.753
0.088,-0.923,0.724,48.828,10.071,-40.222
0.082,-0.911,0.689,40.955,17.639,-28.748
0.073,-0.897,0.652,40.344,20.081,-24.963
0.071,-0.889,0.648,39.490,23.315,-17.578
0.070,-0.859,0.641,37.170,24.353,-13.794
0.072,-0.840,0.636,29.297,23.743,-8.972
0.069,-0.826,0.611,24.780,21.423,-8.240
0.070,-0.828,0.614,15.991,14.038,-7.935
0.070,-0.836,0.621,11.658,10.620,-7.690
0.064,-0.833,0.610,8.545,7.629,-7.568
0.058,-0.823,0.606,10.071,3.601,-7.812
0.081,0.071,1.060,91.431,11.719,1.648
0.087,0.047,1.058,93.750,12.146,-1.221
0.094,-0.031,1.010,87.830,7.507,-5.493
0.115,-0.095,0.976,85.754,-2.380,-15.198
0.184,-0.255,0.935,94.482,-3.479,-15.747
0.216,-0.315,0.958,118.835,5.737,-1.709
0.217,-0.316,1.042,120.483,13.062,8.362
0.178,-0.289,1.029,93.140,17.090,14.648
0.083,-0.266,0.902,77.942,12.146,8.606
0.055,-0.273,0.848,68.665,-1.892,-10.376
0.054,-0.315,0.795,72.693,-7.263,-17.639
0.080,-0.346,0.803,84.351,-10.010,-20.508
0.113,-0.389,0.827,88.074,-6.348,-15.991
0.101,-0.400,0.803,94.421,7.629,-4.028
0.053,-0.384,0.738,99.487,14.587,-0.305
0.023,-0.369,0.725,103.821,26.245,-3.296
0.010,-0.414,0.699,97.961,27.710,-10.193
0.014,-0.458,0.670,78.979,19.104,-26.062
0.013,-0.528,0.628,73.792,15.564,-33.203
0.005,-0.566,0.613,72.266,20.325,-42.908
-0.008,-0.657,0.557,72.144,23.437,-45.044
-0.000,-0.692,0.549,71.106,21.851,-44.922
0.012,-0.737,0.565,70.984,23.315,-44.678
0.005,-0.754,0.545,71.472,34.058,-44.739
-0.022,-0.787,0.496,70.251,36.011,-46.326
-0.018,-0.801,0.490,62.561,29.724,-55.237
0.039,-0.839,0.509,57.922,25.085,-59.509
0.065,-0.867,0.524,49.316,18.311,-56.702
0.070,-0.903,0.544,46.570,17.761,-52.002
0.067,-0.905,0.558,45.837,20.020,-44.617
-0.052,-0.092,0.810,127.014,-21.423,-9.399
-0.004,-0.253,0.825,123.840,-43.823,-28.809
0.025,-0.311,0.831,136.169,-32.227,-17.395
0.029,-0.323,0.811,141.663,-20.142,-6.592
-0.002,-0.314,0.782,147.461,1.526,8.057
-0.081,-0.381,0.682,147.278,7.019,9.521
-0.111,-0.430,0.636,143.921,9.521,3.052
-0.132,-0.511,0.571,142.822,10.071,-4.211
-0.125,-0.553,0.546,140.076,7.324,-21.729
-0.084,-0.663,0.532,137.634,4.089,-27.771
-0.058,-0.716,0.546,134.155,2.075,-29.846
-0.034,-0.780,0.570,125.977,7.690,-23.376
-0.056,-0.784,0.554,123.901,15.930,-18.494
-0.109,-0.778,0.480,126.892,32.654,-16.418
-0.121,-0.774,0.444,127.502,35.034,-18.677
-0.118,-0.776,0.423,120.483,27.466,-30.762
-0.076,-0.814,0.498,112.976,21.484,-39.429
-0.045,-0.832,0.554,88.074,16.418,-50.354
-0.012,-0.872,0.537,73.730,16.968,-49.683
-0.018,-0.890,0.478,59.082,19.043,-39.673
-0.043,-0.909,0.425,60.852,20.325,-33.997
-0.043,-0.907,0.461,67.810,25.208,-25.940
-0.024,-0.896,0.534,66.528,29.297,-22.522
-0.020,-0.878,0.531,53.772,33.142,-15.503
-0.031,-0.845,0.487,46.204,31.555,-13.977
-0.035,-0.847,0.468,33.264,22.705,-15.991
-0.037,-0.874,0.466,28.137,16.968,-18.127
-0.030,-0.884,0.479,21.057,6.653,-21.118
-0.020,-0.891,0.524,17.944,2.502,-20.691
-0.021,-0.899,0.543,10.986,-2.930,-17.944
0.040,-0.867,0.605,46.082,6.042,-57.312
0.038,-0.874,0.621,45.532,16.174,-44.617
0.019,-0.862,0.627,42.664,20.996,-38.574
0.004,-0.846,0.602,34.302,22.644,-32.166
-0.011,-0.837,0.564,31.433,19.226,-32.104
-0.004,-0.845,0.569,26.611,9.216,-33.630
0.021,-0.874,0.607,23.499,4.883,-33.813
0.029,-0.891,0.615,15.625,-0.549,-31.433
0.045,-0.923,0.608,12.512,-3.418,-29.236
0.058,-0.934,0.621,11.414,-8.057,-22.278
0.077,-0.947,0.675,11.658,-8.118,-16.357
0.069,-0.947,0.704,10.742,-3.418,-1.587
0.027,-0.932,0.727,9.277,0.061,5.676
0.006,-0.910,0.713,3.601,5.554,16.418
-0.025,-0.857,0.652,0.916,6.531,18.066
-0.036,-0.838,0.631,0.000,3.906,14.526
-0.047,-0.820,0.654,1.404,1.831,11.597
-0.047,-0.816,0.681,3.296,0.610,7.690
-0.043,-0.819,0.715,2.991,1.892,6.897
-0.035,-0.822,0.719,0.671,5.371,6.287
-0.020,-0.825,0.687,-0.488,6.531,6.104
-0.016,-0.822,0.665,-0.427,5.432,4.456
-0.010,-0.820,0.665,-0.061,3.357,2.686
-0.003,-0.824,0.680,0.000,-0.122,-0.427
0.012,-0.831,0.693,-0.488,0.000,-0.671
0.016,-0.830,0.681,-1.587,1.770,1.160
0.016,-0.807,0.666,-1.465,3.052,2.380
0.011,-0.797,0.664,-1.587,4.395,3.296
-0.004,-0.795,0.657,-3.418,4.822,3.296
-0.003,-0.799,0.656,-4.517,3.845,2.319
0.088,-0.931,0.483,65.247,22.034,-42.175
0.081,-0.967,0.472,65.186,24.902,-37.537
0.085,-0.974,0.488,63.660,30.823,-28.992
0.080,-0.967,0.470,61.829,33.264,-25.024
0.079,-0.967,0.441,59.387,32.349,-18.738
0.108,-0.972,0.420,60.242,30.090,-15.564
0.121,-0.963,0.434,64.270,30.334,-6.775
0.116,-0.929,0.453,63.782,31.921,-2.441
0.104,-0.919,0.448,53.894,30.945,1.404
0.100,-0.925,0.422,46.387,27.161,0.122
0.112,-0.928,0.416,39.368,22.156,-2.625
0.114,-0.935,0.405,28.931,13.000,-7.019
0.102,-0.940,0.408,25.635,9.277,-8.728
0.098,-0.955,0.451,18.311,1.770,-12.939
0.099,-0.960,0.456,13.062,-0.977,-13.672
0.081,-0.944,0.429,5.676,-2.563,-11.414
0.062,-0.934,0.411,5.005,-2.075,-10.132
0.044,-0.933,0.419,6.409,-4.456,-9.949
0.049,-0.938,0.450,6.836,-6.653,-10.620
0.053,-0.951,0.499,4.761,-6.958,-10.620
0.049,-0.955,0.500,2.625,-4.883,-9.216
0.044,-0.957,0.490,-0.183,-0.427,-4.822
0.043,-0.959,0.461,0.061,1.099,-2.747
0.053,-0.957,0.449,3.784,3.052,0.122
0.058,-0.954,0.458,5.737,3.845,1.648
0.056,-0.950,0.464,5.981,5.554,4.150
0.042,-0.943,0.455,4.761,5.371,3.601
0.043,-0.944,0.459,1.587,2.747,-1.221
0.060,-0.959,0.473,-0.549,1.038,-3.174
0.062,-0.959,0.471,-2.747,0.305,-3.052
0.072,-0.577,0.644,107.544,11.780,-27.039
0.082,-0.645,0.602,113.220,13.733,-23.071
0.084,-0.673,0.593,120.056,18.127,-17.578
0.083,-0.708,0.568,122.375,20.691,-15.564
0.084,-0.722,0.551,124.023,23.071,-11.230
0.073,-0.757,0.535,123.108,22.949,-9.338
0.059,-0.765,0.538,118.408,26.611,-9.705
0.040,-0.772,0.517,112.915,28.931,-11.108
0.041,-0.778,0.484,97.534,26.062,-12.390
0.047,-0.811,0.431,91.614,23.376,-13.062
0.045,-0.830,0.419,87.341,22.095,-13.977
0.035,-0.848,0.420,78.735,20.142,-14.038
0.037,-0.848,0.423,72.998,19.226,-13.245
0.068,-0.846,0.409,60.547,17.883,-9.399
0.081,-0.856,0.378,57.373,18.616,-7.507
0.086,-0.877,0.346,59.265,21.667,-8.301
0.087,-0.932,0.334,61.951,22.339,-11.047
0.090,-0.948,0.344,67.810,21.606,-17.090
0.106,-0.953,0.369,67.871,20.752,-18.677
0.116,-0.953,0.373,59.509,18.127,-19.165
0.131,-0.964,0.350,54.565,16.541,-18.433
0.131,-0.973,0.338,48.096,13.611,-14.465
0.126,-0.981,0.342,46.143,12.756,-12.268
0.117,-0.980,0.348,42.419,11.292,-10.254
0.090,-0.978,0.375,40.100,9.827,-10.376
0.083,-0.979,0.396,31.738,6.042,-11.353
0.076,-0.990,0.414,26.428,5.005,-10.437
0.066,-0.994,0.401,17.761,5.249,-5.615
0.037,-0.986,0.378,15.442,5.188,-3.418
0.030,-0.973,0.383,11.902,2.563,-2.747
0.042,-0.888,0.371,29.114,12.268,-11.292
0.041,-0.927,0.423,25.452,5.676,-17.883
0.042,-0.949,0.446,23.376,3.601,-19.653
0.055,-0.982,0.433,19.165,3.967,-17.395
0.060,-0.983,0.404,18.616,4.822,-13.977
0.066,-0.976,0.389,22.644,5.249,-6.348
0.070,-0.971,0.409,24.780,5.493,-2.808
0.069,-0.969,0.432,24.109,7.751,3.174
0.059,-0.963,0.458,20.752,9.216,5.127
0.055,-0.957,0.449,10.864,11.169,6.409
0.042,-0.954,0.384,7.019,10.803,6.226
0.035,-0.955,0.351,6.287,5.554,4.639
0.041,-0.949,0.348,9.033,2.075,2.930
0.051,-0.944,0.380,12.756,-2.258,-0.916
0.057,-0.958,0.454,10.864,-2.747,-2.014
0.056,-0.966,0.464,1.648,-1.099,-1.648
0.045,-0.966,0.423,-1.770,0.366,-0.366
0.041,-0.966,0.403,-1.465,2.075,2.930
0.036,-0.966,0.400,0.671,2.502,4.456
0.028,-0.962,0.404,4.150,3.479,6.226
0.015,-0.951,0.423,4.883,3.479,5.432
0.020,-0.951,0.429,4.761,3.052,3.418
0.042,-0.949,0.418,2.563,2.747,-0.488
0.046,-0.946,0.406,1.282,3.174,-1.160
0.042,-0.948,0.400,-0.427,3.235,-2.502
0.041,-0.951,0.404,-0.793,2.686,-3.540
0.044,-0.954,0.404,-0.793,2.075,-4.395
0.051,-0.957,0.403,-0.854,2.136,-4.028
0.052,-0.956,0.402,-2.136,2.686,-2.258
0.047,-0.949,0.401,-2.441,2.869,-1.648
0.181,-0.645,0.610,125.671,12.451,-25.574
0.190,-0.686,0.568,165.894,23.621,11.292
0.115,-0.652,0.555,185.913,33.142,25.452
0.058,-0.629,0.551,200.562,43.152,31.860
0.008,-0.651,0.493,193.176,39.124,25.513
0.021,-0.683,0.458,169.434,25.696,1.587
0.058,-0.758,0.412,159.241,22.705,-12.085
0.063,-0.800,0.408,140.808,21.973,-33.752
0.069,-0.891,0.414,130.981,23.315,-40.222
0.071,-0.922,0.411,113.098,29.846,-41.626
0.062,-0.953,0.348,106.995,35.889,-38.147
0.052,-0.971,0.307,98.083,42.175,-28.809
0.058,-0.998,0.280,94.910,42.969,-25.452
0.065,-1.003,0.289,91.431,44.128,-23.132
0.082,-0.993,0.312,80.994,44.861,-20.447
0.095,-0.979,0.311,73.975,43.274,-19.043
0.111,-0.957,0.289,60.730,37.781,-13.062
0.109,-0.961,0.269,56.763,36.377,-9.216
0.109,-0.972,0.255,53.467,34.729,-1.648
0.119,-0.982,0.261,52.856,33.569,2.258
0.119,-0.971,0.257,49.255,28.992,8.911
0.098,-0.943,0.251,45.837,24.597,9.766
0.092,-0.929,0.260,38.574,15.442,4.883
0.081,-0.937,0.289,35.583,12.329,0.427
0.078,-0.953,0.298,28.564,7.385,-7.690
0.083,-0.995,0.301,25.146,5.005,-10.315
0.089,-1.014,0.307,21.912,2.563,-10.437
0.098,-1.033,0.323,22.400,3.418,-8.118
0.094,-1.031,0.325,23.010,5.981,-1.404
0.080,-1.022,0.337,22.095,6.836,1.465
0.086,-0.797,0.416,141.602,32.104,15.808
0.082,-0.807,0.399,120.605,34.119,1.160
0.097,-0.840,0.377,109.558,32.898,-7.080
0.102,-0.851,0.365,91.858,33.630,-18.799
0.097,-0.849,0.317,84.778,35.400,-22.827
0.092,-0.846,0.290,71.960,35.706,-30.762
0.079,-0.843,0.279,67.139,34.180,-35.156
0.074,-0.840,0.294,61.279,34.668,-41.260
0.069,-0.853,0.275,58.105,35.461,-42.847
0.076,-0.882,0.247,52.979,32.227,-44.434
0.087,-0.953,0.224,52.734,30.518,-43.457
0.086,-0.973,0.238,54.138,30.090,-37.415
0.081,-0.984,0.279,53.711,31.006,-34.119
0.081,-0.995,0.289,46.143,31.433,-29.419
0.083,-1.033,0.240,41.016,29.846,-26.978
0.086,-1.044,0.215,38.452,23.743,-18.860
0.101,-1.036,0.233,40.283,21.790,-13.062
0.102,-1.019,0.250,42.297,22.339,-0.732
0.079,-0.980,0.264,41.260,23.376,3.784
0.062,-0.966,0.262,35.339,23.987,5.737
0.030,-0.967,0.256,31.067,22.766,3.357
0.023,-0.978,0.255,23.010,17.578,-4.150
0.046,-1.011,0.255,21.057,15.381,-7.141
0.063,-1.024,0.250,22.034,14.343,-6.592
0.076,-1.032,0.249,23.376,15.442,-3.418
0.069,-1.029,0.254,23.193,17.944,2.563
0.053,-1.014,0.259,21.484,18.372,3.174
0.052,-1.014,0.257,19.470,17.944,1.892
0.053,-1.020,0.253,15.564,15.381,-3.235
0.071,-1.046,0.244,13.428,13.733,-5.798
0.034,-0.495,0.724,88.379,-6.958,-26.123
0.051,-0.536,0.708,100.830,2.563,-13.794
0.056,-0.586,0.666,107.300,8.972,-6.226
0.037,-0.586,0.647,117.554,18.494,6.287
-0.021,-0.554,0.641,120.666,22.095,8.545
-0.031,-0.556,0.620,119.080,24.841,3.235
0.006,-0.645,0.529,115.601,21.057,-1.343
0.035,-0.709,0.486,117.920,15.625,-3.174
0.076,-0.767,0.445,124.939,19.226,0.793
0.079,-0.763,0.433,137.695,28.809,10.986
0.069,-0.772,0.401,139.465,29.236,14.160
0.060,-0.785,0.383,136.414,27.405,12.695
0.030,-0.795,0.362,132.263,26.550,7.751
0.015,-0.789,0.374,118.591,22.095,-11.169
0.002,-0.797,0.430,109.497,20.264,-23.621
-0.004,-0.811,0.449,85.571,21.118,-46.875
-0.027,-0.850,0.418,73.425,23.132,-56.702
-0.035,-0.880,0.377,56.824,24.292,-69.885
-0.031,-0.934,0.299,53.284,23.560,-73.242
-0.024,-0.949,0.269,52.795,22.461,-74.646
-0.011,-0.991,0.258,56.274,18.066,-72.266
-0.005,-1.020,0.270,57.983,15.808,-67.749
-0.001,-1.038,0.284,60.425,15.808,-52.979
-0.001,-1.047,0.288,60.120,17.334,-45.898
-0.001,-1.044,0.280,57.251,17.761,-34.485
-0.003,-1.023,0.260,56.274,17.761,-29.236
-0.009,-1.013,0.255,52.673,15.625,-22.217
-0.029,-1.018,0.271,48.523,13.062,-21.118
-0.037,-1.028,0.275,37.170,7.019,-20.203
-0.042,-1.038,0.266,33.325,4.333,-19.226
0.040,-0.866,0.434,112.915,19.958,-3.296
0.023,-0.865,0.444,91.919,26.062,-15.076
0.037,-0.887,0.401,78.003,24.475,-26.184
0.044,-0.912,0.355,60.791,18.860,-46.936
0.031,-0.965,0.312,58.655,16.235,-53.162
0.027,-0.991,0.332,58.777,16.541,-57.007
0.032,-1.034,0.372,56.152,17.822,-55.237
0.042,-1.041,0.376,47.607,20.813,-46.570
0.052,-1.032,0.339,44.495,23.315,-39.978
0.043,-1.027,0.314,41.748,26.672,-25.879
0.019,-1.024,0.272,41.199,26.001,-20.691
0.019,-1.033,0.267,39.612,19.470,-12.085
0.041,-1.048,0.326,38.940,17.212,-6.104
0.038,-1.034,0.350,37.964,18.005,1.343
-0.037,-0.967,0.301,34.485,23.071,13.489
-0.072,-0.941,0.262,32.776,21.729,12.756
-0.077,-0.939,0.261,30.334,10.437,-2.075
-0.014,-0.992,0.332,28.076,6.836,-8.728
0.015,-1.022,0.342,21.301,8.362,-9.033
0.008,-1.039,0.290,19.348,10.437,-4.456
-0.006,-1.026,0.279,20.569,12.268,4.883
-0.032,-0.987,0.298,21.667,13.489,7.324
-0.046,-0.973,0.303,19.897,14.954,5.615
-0.056,-0.963,0.287,17.944,14.221,1.831
-0.041,-0.972,0.278,13.794,9.766,-6.836
-0.002,-1.012,0.287,12.329,8.057,-8.850
0.002,-1.025,0.292,11.353,8.362,-6.592
-0.008,-1.040,0.303,10.559,9.338,-4.517
-0.010,-1.043,0.305,8.545,11.230,-1.404
-0.008,-1.042,0.288,7.629,11.902,-0.610
-0.029,-0.895,0.297,63.110,22.766,-22.095
0.011,-0.944,0.300,62.622,18.250,-23.315
0.022,-0.962,0.327,64.270,17.639,-18.860
0.016,-0.964,0.360,65.308,21.545,-14.709
0.012,-0.953,0.337,60.059,28.015,-10.925
0.025,-0.955,0.249,55.176,27.466,-13.672
0.046,-0.979,0.225,48.279,21.851,-21.790
0.072,-1.027,0.219,47.791,19.714,-22.461
0.074,-1.035,0.228,50.354,19.287,-16.113
0.067,-1.017,0.248,50.049,19.958,-12.268
0.060,-1.004,0.248,42.603,20.508,-9.827
0.047,-1.004,0.217,35.828,19.226,-11.536
0.047,-1.017,0.195,23.682,13.000,-15.259
0.063,-1.041,0.197,21.912,10.254,-14.587
0.061,-1.044,0.218,22.888,9.888,-7.080
0.038,-1.028,0.241,21.912,10.986,-3.174
0.026,-1.015,0.235,16.785,11.475,-0.061
0.005,-0.999,0.218,14.404,10.315,-0.793
0.001,-1.002,0.235,12.451,8.362,-2.319
-0.001,-1.014,0.271,8.484,7.141,-3.418
-0.005,-1.016,0.267,6.775,8.301,-2.197
-0.017,-1.005,0.236,5.310,10.193,0.366
-0.017,-0.997,0.230,5.859,9.644,0.061
-0.004,-0.993,0.254,7.751,8.118,-3.906
0.004,-0.997,0.269,7.324,7.996,-6.042
0.007,-1.005,0.274,4.211,10.437,-8.301
0.008,-1.031,0.243,2.686,11.292,-8.606
0.016,-1.041,0.222,3.418,9.766,-6.775
0.031,-1.038,0.222,5.432,8.545,-4.150
0.031,-1.022,0.239,7.812,8.789,0.122
0.106,-0.724,0.583,103.577,21.729,3.662
0.106,-0.749,0.528,97.168,32.104,12.207
0.117,-0.811,0.425,98.083,32.837,15.381
0.137,-0.834,0.414,103.516,32.715,18.555
0.158,-0.851,0.431,103.577,32.715,18.372
0.150,-0.843,0.432,100.647,31.616,16.968
0.122,-0.802,0.454,88.501,26.672,7.935
0.111,-0.784,0.464,80.505,25.391,-0.549
0.099,-0.775,0.449,60.669,21.484,-23.010
0.071,-0.787,0.401,51.086,16.479,-35.828
0.066,-0.811,0.398,39.001,5.371,-56.763
0.066,-0.873,0.424,36.621,1.892,-61.340
0.062,-0.905,0.446,36.438,4.761,-57.922
0.056,-0.937,0.436,37.354,10.132,-52.246
0.049,-0.936,0.399,39.734,14.099,-40.222
0.034,-0.940,0.362,41.748,12.329,-36.377
0.038,-0.957,0.377,43.762,9.094,-31.372
0.056,-0.994,0.427,41.931,9.033,-27.649
0.064,-1.005,0.437,34.790,14.343,-16.235
0.064,-0.990,0.411,32.532,18.311,-9.338
0.058,-0.977,0.378,32.227,21.423,-3.052
0.054,-0.968,0.347,34.607,20.630,5.798
0.048,-0.959,0.318,36.072,18.677,8.301
0.048,-0.951,0.321,37.292,15.564,7.935
0.061,-0.933,0.361,34.607,13.367,5.127
0.065,-0.930,0.369,24.353,9.033,-0.244
0.054,-0.930,0.344,21.118,7.629,-1.038
0.037,-0.927,0.339,20.264,5.554,-1.892
0.033,-0.932,0.362,19.409,4.150,-3.967
0.045,-0.944,0.377,15.564,1.404,-7.568
0.127,-0.893,0.338,60.425,13.611,-31.189
0.137,-0.913,0.340,62.866,12.878,-28.015
0.123,-0.921,0.346,67.139,12.573,-21.179
0.086,-0.931,0.358,67.383,12.329,-18.616
0.081,-0.928,0.374,62.622,11.658,-16.418
0.087,-0.925,0.399,58.105,12.695,-16.907
0.086,-0.932,0.393,48.035,15.991,-18.311
0.077,-0.972,0.332,43.518,16.541,-18.555
0.078,-0.990,0.301,40.283,15.625,-17.944
0.101,-0.979,0.291,39.856,12.085,-13.000
0.109,-0.970,0.302,41.077,11.841,-9.644
0.102,-0.969,0.313,41.199,13.367,-4.089
0.068,-0.981,0.315,40.161,13.794,-2.991
0.061,-0.986,0.315,36.560,11.902,-3.906
0.063,-0.997,0.316,34.973,11.230,-4.578
0.068,-1.003,0.311,33.447,10.864,-3.967
0.084,-1.009,0.311,32.715,10.803,-3.174
0.087,-1.008,0.313,30.212,12.939,-2.991
0.073,-1.004,0.292,28.198,13.855,-3.845
0.068,-1.002,0.279,23.682,12.146,-7.690
0.081,-1.009,0.282,21.790,10.498,-9.521
0.092,-1.017,0.289,19.287,10.254,-9.644
0.099,-1.032,0.286,18.311,11.536,-8.118
0.097,-1.036,0.273,16.174,12.756,-5.310
0.099,-1.036,0.254,15.625,12.390,-4.517
0.103,-1.034,0.255,15.625,12.024,-3.723
0.109,-1.028,0.258,15.381,12.390,-1.770
0.115,-1.028,0.262,14.526,12.512,-0.732
0.123,-1.020,0.261,10.864,13.367,1.221
0.119,-1.016,0.254,8.789,14.221,1.709
0.008,-0.402,0.847,152.771,1.038,15.442
0.014,-0.434,0.838,157.043,-0.671,15.930
0.020,-0.485,0.828,157.410,-0.244,13.794
0.025,-0.509,0.816,151.672,1.221,10.986
0.042,-0.588,0.763,133.362,2.625,4.700
0.053,-0.646,0.718,126.892,3.601,3.540
0.066,-0.703,0.673,126.221,7.446,8.118
0.094,-0.772,0.601,129.150,11.047,12.268
0.098,-0.782,0.576,132.324,17.517,19.714
0.066,-0.760,0.543,131.531,18.127,21.606
0.048,-0.745,0.546,126.099,15.686,18.311
0.047,-0.751,0.540,121.155,15.686,13.428
0.058,-0.771,0.514,107.056,17.578,3.296
0.084,-0.820,0.447,100.281,18.188,0.244
0.098,-0.848,0.423,96.008,20.508,2.075
0.120,-0.885,0.409,98.999,24.170,7.629
0.116,-0.883,0.409,103.516,30.212,14.832
0.047,-0.845,0.376,106.812,42.847,23.804
0.012,-0.828,0.352,102.417,44.189,20.569
0.003,-0.821,0.336,85.815,35.706,-0.183
0.040,-0.828,0.323,77.209,30.762,-12.573
0.067,-0.838,0.307,62.378,23.743,-32.227
0.100,-0.893,0.280,56.824,20.935,-38.757
0.104,-0.932,0.273,49.622,18.433,-43.152
0.111,-0.979,0.271,47.791,18.677,-41.077
0.115,-0.981,0.266,46.997,21.240,-32.898
0.101,-0.982,0.255,45.898,21.790,-29.358
0.092,-0.987,0.262,40.283,19.043,-25.574
0.096,-1.002,0.295,36.743,17.517,-24.109
0.097,-1.006,0.298,31.372,16.968,-17.700
0.035,-0.823,0.393,91.064,46.387,31.616
0.066,-0.839,0.371,57.312,36.072,-2.991
0.131,-0.886,0.306,48.340,33.386,-14.099
0.148,-0.902,0.288,46.997,34.241,-21.851
0.151,-0.933,0.252,48.828,35.095,-20.935
0.147,-0.941,0.237,49.927,34.363,-18.982
0.160,-0.942,0.226,49.805,30.579,-17.639
0.172,-0.939,0.232,48.584,28.809,-18.188
0.180,-0.934,0.253,43.152,26.733,-18.738
0.177,-0.935,0.255,39.185,25.757,-18.860
0.170,-0.936,0.249,31.250,22.400,-19.897
0.153,-0.936,0.220,28.320,20.020,-21.423
0.154,-0.942,0.214,24.231,13.062,-25.635
0.170,-0.966,0.229,23.071,9.705,-27.039
0.178,-0.979,0.245,22.217,7.019,-24.902
0.168,-0.984,0.272,21.851,7.996,-21.179
0.153,-0.976,0.279,18.799,11.963,-13.611
0.127,-0.964,0.277,16.418,13.062,-10.986
0.118,-0.965,0.263,14.282,14.282,-8.179
0.108,-0.966,0.241,14.893,13.794,-7.263
0.101,-0.959,0.242,17.517,11.780,-6.104
0.093,-0.948,0.256,17.761,10.742,-7.019
0.095,-0.955,0.263,14.221,8.911,-11.292
0.106,-0.980,0.262,12.085,8.606,-12.512
0.110,-0.988,0.256,10.620,9.094,-12.634
0.117,-0.989,0.245,9.277,10.193,-11.597
0.112,-0.990,0.243,9.033,10.315,-11.047
0.105,-0.991,0.241,7.080,9.644,-10.864
0.104,-0.997,0.234,6.104,8.850,-11.108
0.111,-1.007,0.229,7.019,7.996,-9.155
-0.040,-0.850,0.477,65.247,25.818,0.061
-0.030,-0.853,0.468,50.903,26.672,-7.141
0.028,-0.882,0.442,44.434,25.757,-8.789
0.050,-0.896,0.429,41.748,31.860,-2.991
0.029,-0.909,0.409,43.945,36.865,2.930
-0.002,-0.915,0.395,47.241,42.236,8.545
-0.023,-0.924,0.362,46.204,39.429,6.714
-0.011,-0.923,0.361,42.053,29.968,-2.075
0.031,-0.921,0.378,40.588,27.039,-6.409
0.048,-0.921,0.378,39.917,25.452,-8.484
0.069,-0.924,0.340,39.551,23.682,-5.615
0.074,-0.933,0.329,38.940,22.339,-3.601
0.054,-0.951,0.316,35.889,19.897,-4.822
0.042,-0.957,0.318,33.936,17.517,-8.850
0.045,-0.963,0.330,26.550,9.216,-19.531
0.078,-0.981,0.354,21.606,5.127,-22.583
0.092,-0.989,0.355,16.296,2.197,-20.020
0.099,-0.992,0.355,16.479,2.930,-15.015
0.089,-0.986,0.359,17.578,8.179,-2.502
0.050,-0.967,0.353,17.517,11.108,2.747
0.025,-0.955,0.342,17.822,13.428,8.484
-0.003,-0.922,0.334,18.127,12.634,8.423
0.001,-0.909,0.342,16.113,8.484,2.136
0.024,-0.918,0.373,13.184,6.409,-2.502
0.028,-0.934,0.385,4.028,3.601,-9.583
0.038,-0.969,0.379,0.366,3.235,-11.108
0.047,-0.981,0.371,-1.221,3.723,-10.620
0.047,-0.981,0.350,0.549,7.629,-5.249
0.041,-0.979,0.338,1.831,8.972,-3.052
0.041,-0.981,0.333,2.502,6.470,-3.418
0.184,-0.842,0.506,128.296,13.184,15.259
0.128,-0.788,0.558,137.207,19.592,26.489
0.097,-0.776,0.576,129.395,30.457,30.701
0.079,-0.773,0.541,116.028,31.677,24.475
0.080,-0.772,0.510,91.003,26.245,6.409
0.081,-0.764,0.469,84.106,23.315,-2.747
0.088,-0.775,0.464,78.186,21.240,-15.259
0.117,-0.814,0.450,77.209,23.132,-17.822
0.130,-0.826,0.437,76.111,29.602,-17.639
0.127,-0.830,0.408,74.158,33.081,-17.151
0.114,-0.833,0.386,65.918,36.255,-22.461
0.098,-0.863,0.354,61.157,34.058,-27.771
0.111,-0.879,0.355,57.251,30.579,-32.288
0.142,-0.900,0.363,52.002,27.893,-34.546
0.145,-0.914,0.351,49.683,29.114,-32.837
0.140,-0.927,0.326,45.410,30.762,-29.846
0.126,-0.952,0.291,43.640,30.151,-30.273
0.132,-0.971,0.284,41.199,25.574,-30.579
0.149,-0.999,0.281,41.321,23.010,-28.137
0.155,-1.004,0.286,41.626,21.118,-19.958
0.155,-0.996,0.300,39.612,21.118,-16.235
0.153,-0.998,0.301,29.663,19.653,-12.756
0.153,-1.010,0.279,24.780,18.066,-11.536
0.153,-1.004,0.261,22.888,15.381,-6.714
0.126,-0.982,0.254,24.170,13.977,-4.028
0.113,-0.979,0.265,22.461,8.911,-2.502
0.111,-0.981,0.282,19.348,5.798,-3.418
0.114,-0.981,0.285,15.137,2.441,-4.272
0.102,-0.974,0.284,15.625,2.380,-3.540
0.087,-0.971,0.286,18.188,1.892,-1.953
0.019,-0.810,0.431,76.355,24.597,-13.428
0.035,-0.832,0.440,72.937,17.456,-25.940
0.072,-0.876,0.444,70.129,16.602,-28.259
0.081,-0.892,0.431,68.176,18.860,-25.024
0.089,-0.915,0.424,68.970,20.508,-21.301
0.092,-0.929,0.432,65.918,24.048,-14.893
0.078,-0.957,0.427,61.279,24.536,-12.817
0.061,-0.965,0.418,53.711,24.658,-12.939
0.044,-0.973,0.407,51.270,23.926,-14.282
0.053,-0.974,0.411,45.044,19.897,-15.076
0.077,-0.982,0.404,41.748,18.982,-14.099
0.084,-0.983,0.381,39.673,19.104,-12.756
0.087,-0.982,0.368,39.490,18.738,-9.583
0.091,-0.984,0.391,38.940,18.433,-7.202
0.083,-0.989,0.391,32.532,18.677,-3.052
0.079,-0.990,0.357,28.503,17.090,-2.441
0.092,-0.982,0.352,23.315,12.634,-1.831
0.099,-0.964,0.341,21.851,11.658,-0.977
0.085,-0.960,0.331,19.714,8.240,0.122
0.061,-0.960,0.352,18.616,5.554,-0.305
0.056,-0.962,0.375,14.648,2.930,-2.319
0.048,-0.970,0.384,11.841,2.563,-3.174
0.044,-0.971,0.377,8.423,1.831,-3.662
0.039,-0.972,0.376,8.179,2.014,-3.601
0.040,-0.977,0.381,7.935,2.197,-3.601
0.052,-0.990,0.396,6.958,1.892,-3.967
0.065,-0.998,0.404,3.845,2.502,-3.601
0.076,-1.002,0.404,2.441,4.456,-2.014
0.074,-0.997,0.394,0.916,9.277,1.953
0.070,-0.982,0.378,0.183,10.193,2.991
0.060,-0.293,0.805,130.371,5.920,0.488
0.055,-0.317,0.787,139.404,1.770,-1.160
0.083,-0.375,0.772,139.160,-2.197,-3.662
0.099,-0.406,0.765,133.301,-7.141,-5.127
0.094,-0.465,0.717,131.592,-7.080,-3.784
0.081,-0.490,0.694,132.629,-7.019,-1.526
0.057,-0.542,0.665,134.460,-5.493,-2.747
0.056,-0.571,0.642,132.996,-3.357,-6.897
0.065,-0.636,0.587,129.333,-5.371,-8.606
0.073,-0.671,0.569,123.413,-11.597,-8.667
0.084,-0.719,0.567,123.169,-11.292,-7.202
0.083,-0.733,0.565,124.817,-3.662,-3.845
0.074,-0.743,0.573,124.268,0.305,-2.136
0.067,-0.745,0.572,118.286,8.911,0.732
0.031,-0.761,0.515,114.624,12.329,1.404
0.011,-0.763,0.511,109.070,14.465,-1.465
-0.025,-0.761,0.533,104.858,16.418,-6.470
-0.027,-0.768,0.514,88.928,16.357,-20.142
0.017,-0.810,0.464,80.505,11.963,-25.269
0.049,-0.839,0.470,71.045,6.714,-26.062
0.083,-0.893,0.504,69.275,11.353,-22.217
0.077,-0.908,0.496,68.359,19.836,-17.029
0.039,-0.913,0.432,65.247,33.691,-7.080
0.019,-0.908,0.401,63.538,34.302,-4.395
0.010,-0.906,0.388,62.256,26.917,-8.240
0.045,-0.930,0.414,61.340,22.888,-11.902
0.072,-0.952,0.436,54.077,17.944,-13.367
0.102,-0.984,0.445,49.988,18.250,-10.498
0.102,-0.986,0.431,45.776,22.766,-1.526
0.083,-0.974,0.391,45.532,24.475,2.625
0.075,-0.354,0.924,109.619,19.348,9.705
0.073,-0.383,0.895,104.004,16.846,3.906
0.085,-0.404,0.885,88.684,9.583,-7.141
0.089,-0.443,0.852,82.214,7.324,-11.292
0.078,-0.465,0.828,78.186,6.226,-17.639
0.082,-0.519,0.809,78.918,5.615,-19.165
0.090,-0.551,0.791,79.834,5.554,-19.104
0.111,-0.616,0.744,83.740,7.507,-14.465
0.120,-0.639,0.732,87.769,9.033,-9.583
0.118,-0.647,0.724,94.482,13.245,2.136
0.097,-0.637,0.706,95.703,15.869,5.432
0.102,-0.640,0.692,91.919,18.982,5.127
0.128,-0.687,0.652,87.524,18.188,4.028
0.140,-0.715,0.626,81.421,13.489,4.395
0.140,-0.727,0.614,80.688,11.230,5.310
0.125,-0.715,0.622,78.613,12.085,4.822
0.087,-0.688,0.613,75.684,14.099,2.502
0.078,-0.686,0.593,69.092,13.367,-4.639
0.099,-0.711,0.559,67.566,12.024,-7.568
0.115,-0.735,0.539,68.298,12.512,-9.033
0.120,-0.772,0.498,76.843,17.273,-5.737
0.111,-0.775,0.488,82.336,19.653,-2.808
0.100,-0.773,0.482,88.623,22.644,-1.770
0.070,-0.776,0.464,88.379,22.583,-4.211
0.056,-0.786,0.450,84.656,20.081,-14.160
0.072,-0.816,0.448,80.872,18.127,-20.020
0.090,-0.835,0.454,68.726,15.442,-28.748
0.110,-0.868,0.439,62.317,15.747,-30.701
0.106,-0.882,0.411,53.406,17.578,-31.250
0.098,-0.907,0.376,51.208,17.090,-31.067
0.194,-0.639,0.712,78.491,14.038,1.587
0.195,-0.633,0.705,85.510,19.775,9.399
0.151,-0.576,0.689,95.947,31.799,21.423
0.119,-0.536,0.682,90.515,35.278,18.372
0.076,-0.471,0.676,82.886,34.363,10.254
0.071,-0.462,0.672,73.792,32.349,-0.549
0.089,-0.507,0.635,57.495,27.710,-22.461
0.103,-0.544,0.603,52.246,25.574,-30.273
0.115,-0.571,0.578,50.354,21.790,-36.987
0.120,-0.587,0.563,53.223,22.034,-37.476
0.121,-0.602,0.556,59.937,24.292,-36.072
0.138,-0.659,0.526,62.988,23.926,-33.752
0.143,-0.688,0.510,70.129,25.146,-27.588
0.143,-0.717,0.486,73.547,26.489,-24.841
0.138,-0.718,0.490,76.294,26.489,-23.010
0.115,-0.723,0.508,74.585,25.879,-24.719
0.104,-0.742,0.505,67.322,23.621,-31.799
0.089,-0.797,0.478,63.477,21.667,-35.278
0.088,-0.817,0.468,56.641,16.846,-40.771
0.093,-0.840,0.478,53.284,14.954,-43.457
0.100,-0.855,0.477,47.913,12.634,-45.898
0.120,-0.888,0.441,47.424,10.742,-44.189
0.126,-0.894,0.428,49.377,9.399,-40.894
0.124,-0.901,0.425,56.885,10.132,-33.203
0.102,-0.917,0.448,58.838,10.803,-29.236
0.084,-0.920,0.460,57.495,12.878,-24.048
0.057,-0.921,0.465,55.054,13.550,-23.560
0.055,-0.926,0.465,47.180,11.475,-24.048
0.056,-0.940,0.461,42.297,10.193,-23.926
0.053,-0.943,0.456,34.912,10.376,-23.010
0.013,0.052,1.076,121.765,-7.446,9.705
0.027,0.008,1.095,97.717,-13.550,-1.282
0.046,-0.085,1.082,84.961,-13.000,-4.700
0.062,-0.210,0.996,71.167,-5.371,-9.155
0.082,-0.280,0.956,72.327,-0.732,-8.728
0.108,-0.341,0.925,86.548,6.836,0.244
0.146,-0.422,0.872,95.886,9.399,8.667
0.150,-0.430,0.857,112.854,13.428,27.466
0.132,-0.402,0.846,118.408,16.174,34.302
0.109,-0.390,0.830,120.850,18.921,36.926
0.073,-0.409,0.786,118.774,16.113,33.020
0.072,-0.428,0.771,110.901,5.676,20.691
0.073,-0.446,0.742,107.361,1.770,14.038
0.067,-0.459,0.721,103.882,-0.732,0.732
0.077,-0.504,0.715,102.234,-2.075,-3.967
0.081,-0.526,0.725,96.252,-1.526,-6.775
0.074,-0.581,0.692,92.529,0.732,-5.859
0.067,-0.624,0.648,92.712,5.798,-2.380
0.069,-0.703,0.580,98.389,7.141,0.732
0.076,-0.722,0.576,105.347,7.874,5.249
0.081,-0.732,0.581,114.258,10.986,15.137
0.094,-0.755,0.580,114.563,13.245,19.531
0.106,-0.770,0.576,108.704,17.883,26.184
0.122,-0.784,0.559,104.919,21.973,26.733
0.123,-0.787,0.539,96.863,30.701,22.217
0.104,-0.794,0.493,91.125,32.532,18.066
0.105,-0.805,0.464,79.468,30.090,8.179
0.126,-0.831,0.455,76.416,26.855,4.822
0.128,-0.836,0.474,75.378,28.992,0.061
0.125,-0.832,0.465,72.083,31.433,-2.441
0.114,-0.941,0.363,45.898,12.634,-31.067
0.121,-0.980,0.372,39.795,8.667,-31.799
0.127,-0.993,0.376,35.706,6.958,-31.006
0.131,-1.000,0.381,29.297,6.226,-26.978
0.129,-1.010,0.373,27.039,6.714,-23.804
0.123,-1.012,0.365,26.917,7.446,-15.076
0.109,-0.999,0.381,29.053,8.850,-9.827
0.097,-0.992,0.389,29.846,13.062,-0.793
0.078,-0.981,0.376,27.954,13.855,1.953
0.081,-0.978,0.368,23.743,12.573,4.211
0.088,-0.963,0.355,22.644,11.658,5.066
0.078,-0.955,0.347,22.644,9.827,5.859
0.061,-0.952,0.346,22.705,8.118,4.700
0.065,-0.954,0.354,21.851,5.005,1.099
0.081,-0.954,0.383,21.729,5.493,0.305
0.084,-0.955,0.389,19.714,10.132,0.366
0.085,-0.968,0.361,17.822,12.146,0.610
0.084,-0.974,0.337,16.479,13.245,1.160
0.090,-0.970,0.325,16.907,12.878,1.221
0.090,-0.967,0.326,16.968,12.573,0.732
0.096,-0.963,0.322,13.794,11.108,-2.502
0.104,-0.966,0.319,11.475,9.583,-5.371
0.111,-0.974,0.321,9.338,7.751,-9.338
0.116,-0.984,0.327,9.399,8.240,-9.094
0.115,-0.982,0.324,8.972,10.620,-6.592
0.118,-0.975,0.307,8.362,11.414,-5.554
0.119,-0.976,0.301,6.592,11.780,-4.700
0.120,-0.981,0.291,5.310,11.169,-4.883
0.121,-0.983,0.285,2.441,7.812,-5.310
0.129,-0.984,0.281,1.343,6.104,-5.005