aX,aY,aZ,gX,gY,gZ
-0.491,-0.361,0.740,-0.610,4.456,-0.061
-0.489,-0.373,0.749,-2.258,0.671,-0.977
-0.490,-0.379,0.748,-1.648,-0.549,0.244
-0.492,-0.382,0.756,-0.427,-0.549,0.916
-0.494,-0.383,0.763,1.709,1.038,1.770
-0.497,-0.376,0.762,2.136,2.075,1.831
-0.496,-0.372,0.759,2.197,2.686,1.526
-0.494,-0.369,0.755,1.343,2.136,0.427
-0.495,-0.372,0.754,0.916,1.526,0.183
-0.497,-0.375,0.757,1.465,0.671,0.305
-0.492,-0.374,0.766,1.587,0.854,0.488
-0.488,-0.373,0.769,0.366,1.892,0.793
-0.488,-0.376,0.765,-0.305,2.319,0.854
-0.493,-0.381,0.763,-0.488,2.869,1.160
-0.508,-0.382,0.764,0.000,3.113,1.404
-0.509,-0.378,0.767,0.732,3.662,1.770
-0.504,-0.367,0.770,0.732,3.784,1.953
-0.508,-0.366,0.768,0.488,2.991,1.282
-0.510,-0.372,0.772,0.244,1.953,0.427
-0.504,-0.376,0.780,-0.854,0.732,-0.427
-0.498,-0.380,0.788,-0.916,1.160,-0.244
-0.502,-0.380,0.785,0.549,2.441,0.244
-0.505,-0.377,0.785,0.977,2.197,0.061
-0.498,-0.376,0.791,0.732,1.953,-0.488
-0.492,-0.382,0.793,-1.343,1.892,-1.526
-0.496,-0.387,0.791,-2.441,1.831,-1.648
-0.505,-0.392,0.793,-3.113,2.441,-1.709
-0.505,-0.389,0.793,-3.052,3.174,-1.648
-0.497,-0.383,0.794,-3.113,4.639,-1.343
-0.494,-0.381,0.792,-3.418,5.432,-1.221
-0.568,-0.511,0.744,7.751,-26.001,18.799
-0.596,-0.514,0.726,11.536,-21.973,23.437
-0.615,-0.499,0.734,20.386,-14.587,27.954
-0.635,-0.454,0.770,21.729,-12.573,28.564
-0.646,-0.431,0.787,16.663,-11.292,26.367
-0.648,-0.400,0.818,12.939,-9.949,22.583
-0.639,-0.404,0.824,5.554,-5.737,16.052
-0.631,-0.429,0.815,2.930,-3.601,14.648
-0.624,-0.436,0.802,2.014,1.099,13.184
-0.598,-0.431,0.789,3.296,2.808,13.062
-0.590,-0.427,0.792,4.639,4.395,13.306
-0.596,-0.418,0.789,3.723,8.606,14.282
-0.604,-0.411,0.773,1.465,10.681,14.099
-0.605,-0.406,0.752,-1.831,9.766,10.193
-0.580,-0.407,0.737,-2.380,6.775,7.263
-0.565,-0.410,0.739,-2.869,2.014,2.563
-0.541,-0.411,0.743,-2.747,1.038,0.977
-0.529,-0.411,0.752,-1.892,1.648,-0.793
-0.520,-0.412,0.762,-1.221,3.967,-1.038
-0.519,-0.412,0.757,-0.610,8.911,-2.441
-0.492,-0.411,0.741,-1.526,8.728,-4.150
-0.474,-0.417,0.739,-4.150,4.822,-7.507
-0.465,-0.444,0.734,-4.272,3.723,-7.996
-0.462,-0.457,0.738,-1.648,5.493,-6.714
-0.439,-0.462,0.743,-0.549,7.690,-5.432
-0.429,-0.461,0.735,-1.953,9.399,-3.540
-0.429,-0.461,0.716,-3.357,7.690,-3.418
-0.427,-0.459,0.719,-4.761,3.540,-3.784
-0.426,-0.459,0.735,-4.333,2.869,-3.235
-0.430,-0.455,0.739,-0.854,3.174,-0.183
-0.596,-0.350,0.818,10.864,-19.409,14.954
-0.589,-0.345,0.815,7.935,-17.334,12.085
-0.579,-0.330,0.802,7.202,-17.151,10.559
-0.573,-0.323,0.788,5.859,-17.944,6.897
-0.568,-0.328,0.762,5.493,-19.409,4.761
-0.566,-0.339,0.761,7.812,-22.400,2.197
-0.563,-0.357,0.779,10.132,-21.729,2.380
-0.565,-0.364,0.782,12.024,-16.418,4.272
-0.564,-0.371,0.774,11.169,-13.794,5.188
-0.563,-0.373,0.766,7.690,-10.376,5.493
-0.572,-0.379,0.752,5.249,-9.888,5.249
-0.575,-0.383,0.744,1.587,-9.827,4.639
-0.571,-0.389,0.735,1.465,-9.155,4.761
-0.573,-0.392,0.733,4.211,-6.165,6.104
-0.574,-0.395,0.736,5.371,-4.700,6.714
-0.568,-0.392,0.739,6.042,-3.235,6.714
-0.563,-0.385,0.737,5.737,-2.930,6.104
-0.564,-0.385,0.735,4.639,-2.380,5.005
-0.564,-0.391,0.734,4.639,-1.587,5.188
-0.562,-0.394,0.729,5.127,-0.671,5.859
-0.553,-0.399,0.730,6.531,-0.793,6.714
-0.551,-0.405,0.735,6.470,-1.160,6.226
-0.550,-0.410,0.741,4.150,-1.465,5.127
-0.552,-0.423,0.747,2.869,-0.854,4.944
-0.559,-0.427,0.741,1.709,0.122,5.005
-0.564,-0.420,0.735,2.319,-0.305,4.883
-0.555,-0.411,0.746,3.967,-1.343,3.540
-0.531,-0.402,0.780,3.235,-0.610,3.113
-0.529,-0.406,0.783,-0.854,3.906,3.540
-0.548,-0.412,0.745,-1.892,5.737,4.333
-0.354,-0.051,0.761,0.244,-62.805,38.879
-0.390,-0.073,0.721,-1.831,-67.383,32.532
-0.398,-0.119,0.728,-6.409,-81.299,23.315
-0.401,-0.206,0.769,-7.568,-83.252,21.362
-0.407,-0.224,0.780,-8.057,-79.163,21.606
-0.422,-0.214,0.785,-8.484,-77.026,22.095
-0.428,-0.205,0.780,-10.071,-76.965,22.522
-0.455,-0.195,0.777,-9.216,-77.332,23.010
-0.476,-0.180,0.788,-3.235,-72.327,26.001
-0.531,-0.135,0.803,0.671,-66.956,26.733
-0.554,-0.115,0.804,3.784,-58.411,23.926
-0.597,-0.093,0.797,1.526,-56.702,20.996
-0.614,-0.091,0.790,-8.484,-57.495,12.085
-0.622,-0.131,0.789,-14.404,-58.350,7.996
-0.624,-0.169,0.792,-21.240,-54.016,6.409
-0.634,-0.218,0.786,-20.996,-48.950,8.606
-0.647,-0.215,0.778,-13.977,-39.368,13.489
-0.667,-0.169,0.795,-8.911,-35.278,14.587
-0.671,-0.141,0.824,-0.610,-24.902,13.672
-0.669,-0.100,0.848,1.465,-17.334,11.047
-0.689,-0.093,0.840,-6.897,-9.705,7.874
-0.733,-0.114,0.815,-14.038,-9.338,6.226
-0.737,-0.120,0.808,-24.231,-14.343,3.052
-0.717,-0.122,0.807,-26.306,-18.494,2.136
-0.706,-0.117,0.809,-21.606,-22.583,3.174
-0.692,-0.085,0.801,-15.320,-20.752,4.272
-0.680,-0.059,0.808,-3.418,-15.503,6.104
-0.671,-0.027,0.834,-1.038,-13.428,6.836
-0.679,-0.025,0.833,-1.770,-10.864,7.019
-0.700,-0.040,0.818,-1.770,-10.193,6.531
-0.515,-0.196,0.773,6.348,-45.654,44.983
-0.522,-0.185,0.781,5.859,-43.457,42.480
-0.553,-0.190,0.781,4.333,-41.687,42.603
-0.572,-0.196,0.763,3.662,-36.011,41.992
-0.583,-0.204,0.754,6.104,-33.264,41.016
-0.583,-0.202,0.779,11.353,-26.672,40.161
-0.602,-0.184,0.805,11.719,-22.644,40.100
-0.614,-0.171,0.797,11.292,-15.686,38.086
-0.621,-0.145,0.792,12.390,-13.245,36.743
-0.623,-0.139,0.807,15.564,-8.606,34.424
-0.626,-0.128,0.841,15.930,-6.104,32.837
-0.624,-0.129,0.848,14.587,-4.272,30.457
-0.620,-0.187,0.861,8.484,-3.479,25.146
-0.614,-0.217,0.870,6.104,-2.991,23.743
-0.604,-0.233,0.876,6.165,1.038,23.804
-0.603,-0.226,0.869,7.202,3.113,24.475
-0.608,-0.214,0.861,7.690,5.005,23.437
-0.619,-0.200,0.835,6.409,5.127,21.362
-0.617,-0.202,0.817,2.930,2.136,16.602
-0.581,-0.219,0.802,1.465,-1.343,14.526
-0.561,-0.229,0.814,-0.122,-6.531,12.756
-0.546,-0.234,0.844,-0.671,-6.592,13.367
-0.561,-0.225,0.850,-2.686,-4.028,15.015
-0.600,-0.201,0.837,-4.517,-3.235,13.916
-0.596,-0.188,0.828,-7.385,-6.836,8.728
-0.545,-0.169,0.847,-6.775,-8.423,6.836
-0.522,-0.166,0.861,-3.479,-3.418,5.798
-0.505,-0.181,0.848,-2.563,0.610,5.798
-0.500,-0.193,0.835,-0.671,3.540,5.493
-0.490,-0.206,0.834,0.854,2.747,5.493
-0.112,-0.062,0.870,-6.714,-49.866,87.708
-0.127,-0.036,0.879,-7.507,-47.546,85.327
-0.158,-0.022,0.857,-5.676,-45.654,82.520
-0.174,-0.029,0.849,2.502,-46.875,75.439
-0.191,-0.044,0.848,4.639,-49.500,71.838
-0.196,-0.052,0.849,3.662,-54.382,66.223
-0.211,-0.059,0.866,3.723,-54.382,64.392
-0.231,-0.065,0.876,5.554,-48.706,61.279
-0.279,-0.117,0.873,5.310,-46.753,59.448
-0.290,-0.146,0.872,5.554,-45.227,56.458
-0.307,-0.171,0.883,7.202,-42.175,55.298
-0.320,-0.165,0.882,9.216,-33.203,52.917
-0.358,-0.147,0.856,8.667,-30.457,50.537
-0.374,-0.146,0.841,5.798,-31.006,41.626
-0.375,-0.155,0.813,4.089,-33.569,36.804
-0.369,-0.161,0.803,4.150,-37.292,31.067
-0.369,-0.163,0.801,7.446,-35.645,29.297
-0.379,-0.155,0.794,15.137,-29.114,26.245
-0.413,-0.143,0.767,16.418,-28.564,25.208
-0.435,-0.146,0.757,13.733,-36.682,22.095
-0.458,-0.173,0.784,10.376,-43.335,19.226
-0.463,-0.187,0.812,1.038,-53.345,14.465
-0.474,-0.196,0.853,-2.258,-54.810,14.465
-0.485,-0.184,0.861,-2.319,-50.903,18.005
-0.511,-0.144,0.846,-1.099,-48.767,18.188
-0.521,-0.126,0.837,-0.916,-51.208,14.282
-0.529,-0.104,0.847,-0.122,-53.284,12.085
-0.537,-0.098,0.862,5.188,-52.795,9.460
-0.567,-0.096,0.902,7.263,-52.002,9.033
-0.576,-0.094,0.927,7.507,-49.927,7.751
-0.339,-0.170,0.786,6.897,-40.710,46.387
-0.363,-0.198,0.768,13.550,-35.217,45.715
-0.398,-0.226,0.778,17.090,-33.691,44.983
-0.398,-0.227,0.789,17.090,-32.166,40.039
-0.370,-0.219,0.796,13.672,-33.081,36.743
-0.361,-0.216,0.797,8.728,-35.095,32.349
-0.370,-0.212,0.774,9.216,-34.668,31.494
-0.383,-0.213,0.754,13.672,-35.828,31.250
-0.415,-0.225,0.742,16.602,-37.903,31.372
-0.430,-0.234,0.760,21.606,-42.542,30.457
-0.445,-0.231,0.807,22.827,-43.945,29.114
-0.449,-0.218,0.821,23.071,-43.701,25.269
-0.454,-0.184,0.847,22.217,-43.213,23.743
-0.461,-0.172,0.860,18.005,-40.833,22.461
-0.509,-0.182,0.860,15.747,-38.940,22.034
-0.530,-0.184,0.853,14.771,-38.086,18.616
-0.519,-0.173,0.862,15.015,-39.246,15.015
-0.502,-0.168,0.874,13.672,-40.955,8.057
-0.489,-0.161,0.888,13.062,-39.917,6.470
-0.498,-0.152,0.881,15.625,-34.363,5.798
-0.530,-0.141,0.859,17.944,-31.494,4.517
-0.541,-0.153,0.849,19.470,-29.358,2.075
-0.535,-0.192,0.846,18.494,-30.701,-3.906
-0.519,-0.216,0.843,15.869,-33.203,-7.141
-0.491,-0.259,0.824,10.864,-36.133,-9.949
-0.492,-0.263,0.815,10.132,-35.461,-7.996
-0.528,-0.258,0.815,12.878,-29.663,-1.221
-0.553,-0.254,0.826,14.221,-26.611,2.136
-0.578,-0.249,0.837,14.954,-23.376,5.188
-0.597,-0.235,0.850,14.954,-23.071,4.639
-0.096,-0.224,0.837,7.263,-42.114,71.716
-0.145,-0.199,0.831,8.423,-39.734,70.923
-0.176,-0.183,0.815,11.047,-33.691,65.430
-0.229,-0.182,0.776,12.390,-33.630,60.730
-0.246,-0.189,0.766,15.625,-41.565,50.598
-0.249,-0.202,0.766,17.517,-47.241,45.532
-0.241,-0.212,0.768,22.095,-55.664,38.879
-0.227,-0.230,0.764,25.574,-57.739,37.354
-0.219,-0.232,0.769,31.006,-57.800,36.743
-0.227,-0.219,0.780,30.579,-56.580,37.903
-0.249,-0.217,0.778,28.198,-55.420,39.734
-0.317,-0.228,0.763,20.813,-54.687,43.518
-0.349,-0.241,0.750,14.465,-55.481,42.297
-0.355,-0.265,0.760,13.184,-56.152,40.955
-0.343,-0.262,0.778,12.634,-55.664,40.649
-0.355,-0.239,0.775,12.390,-49.988,42.419
-0.377,-0.230,0.762,12.451,-47.791,43.030
-0.425,-0.252,0.745,10.864,-48.096,40.771
-0.432,-0.276,0.749,9.644,-50.110,38.086
-0.424,-0.291,0.769,10.681,-54.199,33.813
-0.420,-0.285,0.821,12.878,-53.284,33.691
-0.439,-0.267,0.841,18.005,-45.776,34.546
-0.497,-0.234,0.847,19.409,-42.664,33.691
-0.511,-0.228,0.849,18.372,-44.922,28.809
-0.505,-0.238,0.893,18.066,-46.753,26.428
-0.497,-0.247,0.921,19.043,-42.419,24.353
-0.511,-0.267,0.947,18.677,-37.659,24.231
-0.529,-0.272,0.952,16.479,-28.931,22.217
-0.548,-0.284,0.953,14.282,-26.123,19.714
-0.548,-0.297,0.949,7.202,-25.269,14.648
-0.392,-0.192,0.813,19.775,-40.466,33.569
-0.363,-0.227,0.769,16.418,-41.870,32.654
-0.355,-0.241,0.751,17.639,-41.077,33.020
-0.359,-0.242,0.733,20.264,-39.673,33.386
-0.369,-0.234,0.727,21.973,-41.077,33.630
-0.391,-0.223,0.716,20.569,-44.922,32.654
-0.392,-0.227,0.725,17.029,-53.467,27.771
-0.395,-0.255,0.759,16.724,-55.298,25.757
-0.412,-0.271,0.771,19.409,-54.626,27.100
-0.448,-0.271,0.796,20.813,-53.040,28.625
-0.458,-0.259,0.804,18.799,-48.706,27.954
-0.484,-0.252,0.793,15.503,-48.340,26.123
-0.500,-0.258,0.790,12.695,-50.049,23.560
-0.521,-0.268,0.807,15.076,-49.316,23.193
-0.527,-0.264,0.817,21.301,-43.579,22.827
-0.538,-0.247,0.835,22.400,-40.833,21.790
-0.543,-0.247,0.850,18.311,-38.635,18.372
-0.555,-0.276,0.861,14.343,-37.598,16.785
-0.558,-0.293,0.848,8.301,-33.752,15.076
-0.561,-0.312,0.812,7.446,-31.677,14.771
-0.561,-0.317,0.804,8.606,-30.762,13.550
-0.553,-0.325,0.817,9.277,-31.738,12.451
-0.550,-0.325,0.829,9.949,-32.166,10.376
-0.539,-0.314,0.865,10.071,-30.945,9.399
-0.528,-0.311,0.882,7.202,-27.100,6.836
-0.519,-0.323,0.882,3.784,-25.330,5.737
-0.529,-0.334,0.864,-0.244,-22.583,5.432
-0.557,-0.345,0.842,1.099,-21.667,6.165
-0.565,-0.344,0.849,3.845,-20.752,7.141
-0.561,-0.329,0.879,8.850,-18.005,8.484
-0.406,-0.252,0.831,21.057,-33.813,33.752
-0.425,-0.250,0.834,22.644,-32.715,34.485
-0.457,-0.229,0.843,24.963,-32.471,34.546
-0.469,-0.220,0.854,27.832,-31.921,31.860
-0.511,-0.225,0.878,26.306,-31.311,29.480
-0.530,-0.234,0.881,19.409,-30.945,23.560
-0.532,-0.244,0.888,15.686,-31.860,20.630
-0.522,-0.246,0.888,11.169,-33.020,16.785
-0.516,-0.250,0.888,10.986,-32.898,15.808
-0.527,-0.257,0.886,11.108,-31.921,14.038
-0.552,-0.280,0.894,10.803,-31.311,13.123
-0.553,-0.285,0.909,12.024,-28.259,12.207
-0.535,-0.271,0.938,13.000,-25.940,12.207
-0.521,-0.260,0.940,12.207,-21.362,11.780
-0.491,-0.246,0.922,10.315,-19.531,10.681
-0.488,-0.249,0.905,5.249,-15.442,7.690
-0.491,-0.272,0.860,2.747,-13.306,6.042
-0.491,-0.286,0.835,0.122,-10.864,3.967
-0.483,-0.302,0.787,0.061,-11.047,3.296
-0.478,-0.303,0.772,0.366,-12.573,2.808
-0.465,-0.288,0.777,3.418,-16.357,1.892
-0.466,-0.279,0.790,5.066,-17.273,1.587
-0.475,-0.273,0.804,4.456,-17.578,0.366
-0.504,-0.282,0.814,2.258,-17.822,-1.038
-0.512,-0.293,0.813,-1.465,-19.897,-3.662
-0.515,-0.306,0.822,-1.587,-20.081,-4.089
-0.514,-0.303,0.830,0.183,-18.127,-3.052
-0.530,-0.293,0.847,1.221,-16.418,-2.258
-0.547,-0.291,0.858,3.418,-12.878,-1.526
-0.558,-0.281,0.885,3.845,-11.536,-2.258
-0.430,-0.212,0.819,13.489,-39.734,19.409
-0.435,-0.227,0.854,13.245,-41.016,20.020
-0.446,-0.217,0.877,18.555,-36.072,22.827
-0.491,-0.179,0.909,22.461,-31.677,23.987
-0.520,-0.166,0.914,27.405,-27.039,23.254
-0.538,-0.159,0.934,27.588,-27.832,21.118
-0.528,-0.172,0.952,22.461,-28.320,14.160
-0.489,-0.227,0.978,17.212,-26.550,11.414
-0.473,-0.253,0.967,8.057,-17.639,10.925
-0.469,-0.294,0.883,5.859,-12.329,12.207
-0.462,-0.307,0.835,5.005,-8.179,14.099
-0.438,-0.324,0.792,5.920,-10.010,14.526
-0.436,-0.331,0.797,11.292,-15.076,17.761
-0.467,-0.307,0.827,15.015,-16.479,20.386
-0.482,-0.284,0.850,17.212,-17.639,22.644
-0.502,-0.264,0.881,13.245,-18.494,21.484
-0.501,-0.266,0.881,7.324,-20.020,19.470
-0.499,-0.277,0.871,-0.183,-22.583,17.334
-0.500,-0.273,0.868,1.160,-22.217,17.700
-0.498,-0.263,0.870,6.775,-19.287,17.578
-0.496,-0.259,0.870,6.714,-18.616,16.479
-0.497,-0.264,0.869,4.028,-19.897,13.733
-0.515,-0.275,0.882,3.723,-19.958,12.756
-0.529,-0.278,0.890,3.052,-18.677,11.597
-0.530,-0.265,0.909,1.587,-18.005,10.742
-0.526,-0.262,0.906,-2.563,-15.991,9.216
-0.536,-0.274,0.890,-3.540,-14.771,8.850
-0.542,-0.281,0.891,-0.366,-11.963,9.094
-0.546,-0.266,0.917,2.197,-9.827,9.155
-0.543,-0.251,0.928,1.953,-5.676,6.409
-0.709,-0.104,0.726,-1.587,28.503,0.488
-0.715,-0.105,0.739,-1.343,32.043,0.793
-0.720,-0.108,0.735,-2.869,38.635,0.244
-0.724,-0.119,0.727,-4.028,40.771,0.061
-0.725,-0.127,0.726,-5.554,45.532,0.488
-0.734,-0.142,0.711,-5.188,48.462,1.404
-0.737,-0.141,0.704,-1.770,53.406,2.930
-0.728,-0.127,0.705,0.366,55.664,2.380
-0.717,-0.120,0.708,2.319,61.401,-0.916
-0.686,-0.113,0.697,1.709,64.270,-2.563
-0.674,-0.118,0.682,0.854,65.430,-3.967
-0.662,-0.121,0.669,2.502,63.293,-4.028
-0.654,-0.113,0.681,6.104,60.791,-4.639
-0.625,-0.098,0.730,15.015,59.082,-7.690
-0.604,-0.095,0.753,17.517,60.547,-9.094
-0.567,-0.100,0.785,16.602,64.270,-11.230
-0.565,-0.108,0.792,14.282,65.857,-11.719
-0.575,-0.115,0.794,10.376,67.261,-13.855
-0.578,-0.116,0.799,10.742,65.796,-15.930
-0.563,-0.102,0.819,15.564,61.829,-21.179
-0.530,-0.083,0.859,17.517,61.035,-25.146
-0.507,-0.081,0.872,11.047,57.983,-30.579
-0.472,-0.088,0.878,4.639,57.312,-32.715
-0.464,-0.082,0.855,-2.441,60.181,-37.170
-0.443,-0.064,0.822,-0.854,59.448,-39.917
-0.428,-0.063,0.841,4.211,50.171,-44.678
-0.419,-0.084,0.931,4.883,46.326,-46.265
-0.423,-0.100,0.965,1.587,47.607,-48.584
-0.436,-0.117,0.991,-1.404,50.598,-49.500
-0.437,-0.109,1.006,-3.174,55.847,-52.307
-0.598,-0.230,0.729,-2.625,2.625,0.977
-0.588,-0.227,0.731,-3.540,0.916,0.488
-0.593,-0.232,0.725,-4.150,-2.075,-0.183
-0.594,-0.230,0.731,-2.563,-2.991,0.061
-0.587,-0.218,0.747,0.671,-1.953,1.282
-0.570,-0.198,0.766,1.038,-0.549,1.526
-0.565,-0.200,0.769,-1.099,1.587,1.404
-0.580,-0.220,0.758,-2.808,2.258,1.648
-0.596,-0.231,0.745,-4.211,2.319,1.770
-0.603,-0.239,0.744,-4.272,-0.610,1.038
-0.599,-0.240,0.757,-2.808,-2.258,0.732
-0.601,-0.238,0.776,0.488,-2.136,2.258
-0.606,-0.231,0.780,1.038,-0.854,3.357
-0.607,-0.222,0.783,-0.427,1.282,3.662
-0.606,-0.211,0.781,-2.197,2.014,3.174
-0.611,-0.212,0.778,-5.676,4.150,2.380
-0.626,-0.214,0.768,-6.409,5.371,2.136
-0.629,-0.213,0.759,-4.944,6.287,1.587
-0.615,-0.204,0.754,-3.296,5.615,0.732
-0.603,-0.199,0.765,-0.916,4.211,-1.282
-0.597,-0.195,0.774,-1.160,4.272,-1.953
-0.599,-0.199,0.769,-2.930,4.028,-2.747
-0.597,-0.209,0.767,-3.479,3.784,-2.930
-0.594,-0.212,0.768,-3.845,4.150,-2.808
-0.594,-0.217,0.765,-3.540,4.333,-2.563
-0.591,-0.216,0.765,-2.319,4.028,-2.502
-0.588,-0.215,0.775,-2.136,3.906,-2.747
-0.586,-0.218,0.780,-3.540,4.028,-3.479
-0.586,-0.228,0.773,-4.700,4.272,-3.540
-0.587,-0.232,0.764,-4.761,4.089,-2.930
-0.761,-0.188,0.767,24.719,-39.063,40.955
-0.748,-0.194,0.767,19.104,-38.330,33.569
-0.735,-0.204,0.767,13.245,-38.330,26.245
-0.723,-0.216,0.762,11.902,-36.743,24.658
-0.726,-0.217,0.750,12.085,-31.799,24.536
-0.734,-0.209,0.743,13.428,-29.785,25.330
-0.741,-0.213,0.749,14.954,-27.222,26.001
-0.774,-0.229,0.754,15.015,-20.813,26.123
-0.790,-0.234,0.748,13.184,-18.799,24.963
-0.787,-0.241,0.733,8.606,-18.066,19.531
-0.771,-0.244,0.732,7.080,-18.616,16.968
-0.756,-0.243,0.733,5.920,-17.395,14.832
-0.752,-0.232,0.731,6.348,-15.015,14.404
-0.756,-0.228,0.725,7.996,-9.277,11.597
-0.751,-0.232,0.717,8.484,-7.812,9.521
-0.743,-0.239,0.720,7.202,-7.507,5.493
-0.737,-0.252,0.721,5.859,-8.118,3.845
-0.737,-0.260,0.725,4.456,-8.606,1.770
-0.738,-0.271,0.741,4.456,-7.874,1.526
-0.735,-0.272,0.745,4.456,-3.662,2.075
-0.721,-0.265,0.734,3.906,-1.282,2.136
-0.707,-0.259,0.726,1.221,1.404,-0.061
-0.683,-0.261,0.713,-0.610,1.343,-2.136
-0.681,-0.274,0.708,-2.380,-0.610,-5.005
-0.683,-0.294,0.709,-1.343,-1.099,-5.005
-0.679,-0.291,0.712,2.991,0.244,-3.418
-0.657,-0.265,0.725,4.395,1.221,-3.357
-0.646,-0.258,0.729,4.089,1.648,-4.211
-0.629,-0.269,0.723,-1.587,1.038,-7.324
-0.624,-0.281,0.712,-5.005,0.549,-8.240
-0.616,-0.203,0.706,11.841,-45.410,48.340
-0.629,-0.206,0.712,10.742,-46.143,47.791
-0.644,-0.206,0.738,9.827,-43.884,43.579
-0.652,-0.207,0.753,8.789,-41.382,40.955
-0.663,-0.209,0.759,5.676,-35.828,36.621
-0.690,-0.209,0.734,4.700,-34.668,34.851
-0.700,-0.203,0.724,5.676,-35.950,31.006
-0.699,-0.187,0.728,7.141,-36.499,29.175
-0.697,-0.184,0.735,9.705,-35.706,27.649
-0.702,-0.168,0.744,11.414,-33.569,27.527
-0.707,-0.160,0.747,13.977,-26.794,26.611
-0.711,-0.157,0.752,13.245,-23.987,25.574
-0.717,-0.165,0.746,8.789,-20.752,22.949
-0.728,-0.182,0.720,6.958,-20.569,21.606
-0.730,-0.188,0.712,7.568,-21.545,19.043
-0.731,-0.192,0.720,9.521,-21.973,17.944
-0.725,-0.189,0.730,12.146,-22.522,16.052
-0.709,-0.192,0.748,11.780,-22.522,15.259
-0.709,-0.197,0.749,8.606,-20.874,13.733
-0.724,-0.202,0.736,7.019,-20.447,12.512
-0.727,-0.200,0.740,5.737,-20.752,9.216
-0.718,-0.208,0.758,5.676,-20.447,7.690
-0.714,-0.218,0.761,5.127,-18.799,5.859
-0.705,-0.237,0.758,5.005,-17.456,5.676
-0.703,-0.242,0.755,5.249,-15.686,5.798
-0.711,-0.250,0.758,5.493,-11.047,6.165
-0.718,-0.252,0.757,5.066,-8.423,5.859
-0.724,-0.253,0.751,2.686,-4.944,4.089
-0.712,-0.254,0.739,1.648,-4.517,2.869
-0.699,-0.255,0.742,1.160,-3.052,1.221
-0.592,-0.245,0.791,5.859,-49.805,22.217
-0.603,-0.229,0.834,8.789,-44.922,23.071
-0.621,-0.226,0.831,10.803,-32.776,24.780
-0.662,-0.237,0.787,9.827,-29.236,24.658
-0.666,-0.250,0.776,6.775,-29.053,22.766
-0.648,-0.278,0.779,5.554,-29.419,21.973
-0.642,-0.285,0.777,5.005,-26.672,21.912
-0.646,-0.284,0.762,5.859,-24.048,22.339
-0.651,-0.278,0.755,8.118,-20.447,22.949
-0.662,-0.262,0.760,8.423,-20.081,22.583
-0.664,-0.252,0.769,7.080,-20.935,19.897
-0.665,-0.239,0.785,6.165,-21.484,18.066
-0.665,-0.242,0.789,4.883,-21.790,13.489
-0.648,-0.259,0.797,4.700,-21.912,11.353
-0.634,-0.264,0.808,4.822,-21.667,10.132
-0.629,-0.265,0.828,5.676,-17.456,10.010
-0.642,-0.262,0.828,5.676,-13.977,10.132
-0.658,-0.259,0.822,3.540,-8.423,8.057
-0.660,-0.255,0.806,1.709,-7.446,5.554
-0.640,-0.259,0.802,-0.366,-8.179,0.366
-0.598,-0.278,0.802,0.061,-8.362,-0.854
-0.590,-0.286,0.802,2.136,-6.226,-0.305
-0.586,-0.292,0.807,2.930,-4.578,0.366
-0.590,-0.292,0.812,2.197,-1.465,0.305
-0.600,-0.293,0.815,0.854,-0.244,-0.488
-0.597,-0.295,0.812,-1.831,1.282,-1.831
-0.580,-0.297,0.799,-2.625,1.770,-2.014
-0.576,-0.295,0.792,-2.136,3.662,-1.160
-0.581,-0.286,0.773,-1.099,4.944,-0.793
-0.582,-0.283,0.765,0.854,5.554,-1.404
-0.496,-0.229,0.810,10.681,-51.270,20.386
-0.513,-0.228,0.810,9.216,-46.448,19.226
-0.545,-0.232,0.795,8.728,-44.983,18.250
-0.555,-0.235,0.794,9.277,-45.166,15.991
-0.562,-0.246,0.812,9.705,-45.227,14.893
-0.564,-0.254,0.816,8.362,-42.664,13.306
-0.566,-0.275,0.802,6.287,-41.321,12.756
-0.565,-0.286,0.794,2.869,-39.368,12.695
-0.570,-0.299,0.785,2.686,-38.635,13.489
-0.572,-0.292,0.791,4.578,-35.767,15.686
-0.574,-0.263,0.794,5.188,-33.508,16.541
-0.578,-0.250,0.788,5.005,-31.677,16.907
-0.594,-0.242,0.772,2.930,-31.250,15.625
-0.601,-0.244,0.771,2.136,-31.799,14.587
-0.612,-0.244,0.781,1.953,-30.579,13.123
-0.616,-0.244,0.785,2.258,-28.748,12.634
-0.626,-0.240,0.783,2.258,-24.597,12.207
-0.630,-0.238,0.778,1.770,-22.644,11.841
-0.635,-0.239,0.772,0.854,-20.081,11.169
-0.649,-0.252,0.759,1.465,-18.799,11.108
-0.661,-0.258,0.757,5.005,-14.832,11.230
-0.677,-0.253,0.771,6.348,-12.329,10.864
-0.677,-0.248,0.775,6.042,-8.850,8.972
-0.655,-0.247,0.778,5.005,-8.118,7.507
-0.643,-0.249,0.777,2.869,-7.141,4.883
-0.631,-0.256,0.770,2.319,-6.714,4.211
-0.631,-0.257,0.770,2.869,-4.517,3.967
-0.642,-0.257,0.779,3.723,-2.319,3.906
-0.650,-0.254,0.781,4.517,1.099,2.441
-0.645,-0.251,0.781,3.601,1.038,0.793
-0.391,-0.317,0.813,11.719,-43.640,27.893
-0.389,-0.305,0.827,2.258,-39.612,34.912
-0.415,-0.290,0.781,-2.197,-36.987,35.645
-0.435,-0.293,0.751,-4.700,-36.499,33.630
-0.478,-0.312,0.741,-3.296,-37.598,33.020
-0.498,-0.317,0.749,1.038,-38.879,30.151
-0.517,-0.327,0.786,2.502,-40.283,26.794
-0.509,-0.327,0.825,3.174,-41.626,23.254
-0.496,-0.306,0.892,2.319,-38.269,24.475
-0.507,-0.295,0.884,-0.488,-28.015,27.893
-0.542,-0.285,0.841,-1.587,-25.818,29.236
-0.556,-0.283,0.835,-0.183,-25.269,30.640
-0.572,-0.270,0.843,2.197,-23.743,30.457
-0.576,-0.263,0.845,5.493,-18.555,28.503
-0.583,-0.268,0.836,5.737,-16.357,27.466
-0.588,-0.280,0.831,5.127,-13.611,25.818
-0.596,-0.296,0.821,5.432,-11.902,24.780
-0.596,-0.295,0.818,7.507,-8.240,23.682
-0.591,-0.284,0.824,8.545,-6.775,23.499
-0.590,-0.278,0.826,7.629,-4.578,21.912
-0.597,-0.280,0.818,5.737,-4.150,19.897
-0.601,-0.287,0.813,4.395,-4.272,17.639
-0.597,-0.282,0.822,5.066,-4.761,14.893
-0.591,-0.271,0.826,6.165,-3.845,14.099
-0.574,-0.255,0.833,7.385,-1.648,11.414
-0.565,-0.255,0.837,6.775,-1.282,9.460
-0.557,-0.260,0.840,3.296,-1.648,5.310
-0.543,-0.280,0.844,0.854,-2.197,3.357
-0.539,-0.292,0.841,-1.953,-2.258,1.343
-0.525,-0.297,0.836,-1.038,-1.526,1.099
-0.334,-0.156,0.812,11.902,-69.458,48.889
-0.355,-0.173,0.824,10.193,-68.787,45.898
-0.360,-0.186,0.826,-0.122,-70.129,40.344
-0.365,-0.204,0.795,-6.165,-70.801,37.842
-0.372,-0.212,0.762,-13.367,-70.679,34.424
-0.388,-0.232,0.684,-14.099,-71.777,32.288
-0.402,-0.243,0.651,-8.911,-78.918,31.433
-0.436,-0.249,0.656,-2.197,-82.703,33.325
-0.455,-0.242,0.695,15.320,-81.604,39.673
-0.510,-0.208,0.764,21.423,-76.599,42.542
-0.547,-0.189,0.771,23.254,-68.481,42.236
-0.611,-0.188,0.763,20.508,-68.970,39.246
-0.622,-0.200,0.778,15.076,-74.646,33.569
-0.603,-0.215,0.830,14.221,-74.280,32.288
-0.595,-0.214,0.846,13.000,-63.171,31.799
-0.608,-0.217,0.829,11.108,-56.335,31.006
-0.620,-0.225,0.812,5.005,-48.889,28.809
-0.640,-0.241,0.791,3.540,-46.875,27.832
-0.651,-0.246,0.781,8.240,-41.992,26.367
-0.666,-0.248,0.776,11.658,-40.100,25.513
-0.664,-0.249,0.787,14.099,-38.696,24.414
-0.663,-0.252,0.826,13.916,-34.363,23.010
-0.669,-0.253,0.836,11.414,-30.212,22.888
-0.677,-0.253,0.834,3.967,-21.240,22.095
-0.704,-0.256,0.809,0.916,-18.188,21.423
-0.720,-0.259,0.798,0.366,-14.038,20.081
-0.744,-0.252,0.794,2.563,-11.414,19.653
-0.747,-0.237,0.797,7.202,-5.005,17.822
-0.732,-0.212,0.802,7.385,-2.563,15.747
-0.716,-0.208,0.804,2.319,-1.038,10.681
-0.495,-0.201,0.834,17.822,-38.391,28.320
-0.516,-0.202,0.848,18.372,-36.011,28.259
-0.540,-0.205,0.831,18.433,-32.593,27.100
-0.543,-0.211,0.831,18.311,-32.471,24.719
-0.537,-0.226,0.853,18.005,-32.288,23.804
-0.539,-0.232,0.863,15.076,-29.602,23.376
-0.556,-0.248,0.855,12.878,-27.405,23.315
-0.562,-0.254,0.848,8.728,-23.621,23.682
-0.566,-0.253,0.839,7.080,-22.217,23.987
-0.569,-0.248,0.834,5.554,-21.362,23.987
-0.577,-0.243,0.826,3.174,-20.935,22.156
-0.583,-0.246,0.818,2.808,-20.996,20.569
-0.591,-0.249,0.811,4.333,-21.179,18.005
-0.594,-0.243,0.821,5.798,-20.996,16.846
-0.588,-0.236,0.835,7.141,-19.226,14.832
-0.574,-0.234,0.852,5.676,-17.761,14.038
-0.578,-0.243,0.848,2.319,-14.221,12.634
-0.595,-0.263,0.835,2.441,-11.963,12.268
-0.598,-0.264,0.829,5.798,-7.507,11.597
-0.585,-0.262,0.832,7.141,-6.042,11.169
-0.577,-0.266,0.837,6.226,-3.845,10.010
-0.572,-0.275,0.840,4.272,-2.625,9.338
-0.574,-0.276,0.834,0.244,-1.648,7.874
-0.569,-0.271,0.822,-0.427,-1.526,7.019
-0.560,-0.266,0.818,1.099,-1.709,5.615
-0.541,-0.257,0.822,2.258,-2.075,5.066
-0.542,-0.259,0.827,2.991,-2.075,4.578
-0.549,-0.270,0.828,2.258,-1.343,3.845
-0.549,-0.271,0.827,1.160,-0.977,3.601
-0.538,-0.267,0.822,-1.648,-0.732,2.502
-0.323,-0.145,0.806,6.897,-50.293,48.523
-0.354,-0.176,0.798,9.338,-53.467,45.898
-0.363,-0.186,0.811,12.756,-54.565,45.349
-0.381,-0.198,0.823,16.174,-53.223,44.556
-0.392,-0.202,0.813,15.137,-52.246,41.809
-0.403,-0.208,0.815,15.869,-52.490,40.466
-0.401,-0.206,0.839,18.982,-48.523,40.100
-0.415,-0.204,0.870,19.043,-43.579,41.199
-0.436,-0.208,0.857,18.188,-38.086,42.358
-0.471,-0.219,0.816,18.188,-32.288,42.236
-0.473,-0.217,0.818,19.958,-32.837,41.077
-0.468,-0.209,0.839,23.987,-32.898,38.635
-0.472,-0.199,0.886,24.353,-29.785,37.415
-0.486,-0.201,0.882,21.484,-22.583,35.095
-0.516,-0.219,0.851,19.897,-21.729,34.119
-0.519,-0.226,0.856,19.104,-23.376,32.349
-0.507,-0.226,0.884,19.653,-22.522,31.494
-0.504,-0.224,0.892,18.799,-17.578,30.151
-0.517,-0.224,0.868,16.724,-15.320,29.114
-0.528,-0.232,0.840,13.550,-15.564,25.696
-0.538,-0.248,0.816,13.855,-17.578,23.499
-0.529,-0.249,0.825,15.137,-21.057,19.592
-0.513,-0.250,0.850,14.282,-22.034,18.494
-0.517,-0.251,0.856,10.864,-22.339,17.273
-0.536,-0.245,0.859,9.888,-22.217,16.479
-0.540,-0.240,0.866,10.132,-21.118,13.428
-0.529,-0.232,0.884,10.559,-19.348,11.536
-0.522,-0.231,0.883,10.071,-14.465,8.545
-0.523,-0.245,0.869,9.216,-13.000,7.507
-0.526,-0.256,0.865,8.301,-12.817,5.615
-0.415,-0.176,0.804,17.639,-52.307,46.448
-0.431,-0.193,0.819,18.860,-52.856,44.312
-0.433,-0.202,0.833,19.653,-52.063,41.016
-0.449,-0.225,0.863,19.104,-50.537,40.222
-0.472,-0.237,0.867,19.470,-46.082,38.818
-0.511,-0.254,0.863,21.057,-44.189,37.170
-0.517,-0.262,0.868,23.071,-41.870,33.691
-0.516,-0.269,0.883,22.766,-40.588,32.593
-0.515,-0.268,0.887,22.217,-35.889,30.457
-0.509,-0.257,0.894,21.729,-33.203,29.175
-0.508,-0.252,0.892,18.982,-28.259,27.039
-0.516,-0.254,0.868,17.578,-26.672,26.184
-0.524,-0.261,0.861,13.733,-24.658,25.085
-0.524,-0.266,0.853,11.658,-23.804,24.353
-0.525,-0.264,0.849,10.010,-25.330,22.583
-0.529,-0.255,0.853,11.169,-26.123,21.484
-0.529,-0.250,0.861,13.611,-23.804,19.531
-0.535,-0.235,0.863,13.062,-21.240,19.043
-0.543,-0.233,0.858,11.169,-18.860,18.494
-0.553,-0.236,0.838,5.676,-17.395,16.235
-0.551,-0.237,0.829,3.845,-18.738,14.587
-0.546,-0.237,0.826,3.601,-23.743,11.719
-0.536,-0.236,0.845,4.639,-24.902,10.864
-0.537,-0.234,0.850,7.019,-21.362,9.766
-0.541,-0.231,0.849,7.812,-18.677,8.911
-0.541,-0.231,0.851,6.897,-16.113,6.775
-0.543,-0.242,0.857,4.700,-15.930,5.859
-0.544,-0.247,0.855,0.061,-15.808,4.395
-0.534,-0.245,0.848,-0.488,-14.771,3.601
-0.528,-0.240,0.844,1.831,-10.864,1.648
-0.534,-0.258,0.781,22.522,-52.979,39.307
-0.532,-0.246,0.778,19.653,-52.917,35.583
-0.529,-0.233,0.776,17.334,-51.575,33.936
-0.542,-0.246,0.765,10.864,-48.340,32.410
-0.585,-0.274,0.734,9.399,-47.668,32.410
-0.602,-0.275,0.726,13.550,-48.523,32.104
-0.615,-0.258,0.750,16.357,-49.194,31.616
-0.623,-0.251,0.768,18.250,-46.814,29.968
-0.652,-0.252,0.774,17.212,-44.556,29.114
-0.665,-0.258,0.776,14.954,-42.236,26.550
-0.674,-0.267,0.807,15.137,-41.077,25.330
-0.675,-0.263,0.824,16.663,-35.095,24.536
-0.679,-0.248,0.832,16.846,-31.006,23.926
-0.682,-0.249,0.829,15.564,-24.963,20.874
-0.684,-0.266,0.832,15.015,-22.949,19.165
-0.683,-0.271,0.835,14.404,-19.348,16.296
-0.669,-0.276,0.843,13.428,-17.578,14.832
-0.660,-0.279,0.841,10.437,-13.184,12.512
-0.650,-0.285,0.822,9.338,-10.864,11.658
-0.649,-0.284,0.813,7.385,-7.935,10.132
-0.650,-0.284,0.806,5.981,-7.507,9.033
-0.648,-0.290,0.807,2.930,-6.958,7.080
-0.650,-0.303,0.794,2.136,-5.737,6.409
-0.645,-0.304,0.783,1.831,-4.272,5.859
-0.620,-0.290,0.768,1.648,-2.686,4.761
-0.611,-0.283,0.759,1.587,-2.319,4.028
-0.606,-0.280,0.750,0.488,-2.930,2.075
-0.596,-0.287,0.749,-0.488,-3.723,0.854
-0.595,-0.293,0.753,-2.502,-3.723,-0.549
-0.597,-0.303,0.748,-2.686,-3.174,-0.549
-0.520,-0.241,0.740,2.258,-63.477,30.823
-0.552,-0.235,0.736,4.883,-61.462,30.579
-0.580,-0.232,0.748,10.254,-57.800,30.823
-0.589,-0.229,0.759,11.169,-56.030,30.212
-0.595,-0.223,0.781,11.353,-54.443,29.297
-0.602,-0.224,0.792,11.841,-51.575,28.809
-0.638,-0.221,0.805,14.404,-42.725,29.419
-0.651,-0.222,0.809,15.198,-38.574,29.053
-0.647,-0.231,0.820,12.268,-34.363,26.184
-0.644,-0.240,0.824,9.338,-32.837,24.597
-0.646,-0.251,0.818,6.531,-27.954,23.193
-0.647,-0.245,0.818,7.568,-25.085,23.132
-0.650,-0.222,0.815,10.071,-19.409,22.644
-0.653,-0.216,0.803,9.766,-17.273,21.484
-0.654,-0.229,0.780,7.202,-17.151,17.700
-0.653,-0.245,0.785,6.287,-18.188,15.686
-0.654,-0.261,0.797,5.981,-17.578,13.123
-0.659,-0.277,0.814,6.042,-15.625,12.695
-0.660,-0.277,0.818,6.348,-10.010,12.756
-0.657,-0.261,0.809,6.104,-6.897,12.512
-0.656,-0.251,0.797,2.747,-3.174,10.071
-0.651,-0.249,0.757,0.549,-4.089,7.812
-0.640,-0.254,0.751,-0.610,-9.644,3.601
-0.613,-0.267,0.770,0.488,-10.864,2.563
-0.607,-0.269,0.778,3.418,-8.972,2.686
-0.606,-0.264,0.788,4.822,-7.568,2.991
-0.611,-0.256,0.797,5.737,-5.127,1.526
-0.616,-0.252,0.811,4.333,-4.272,-0.305
-0.608,-0.257,0.809,-0.366,-2.625,-3.723
-0.586,-0.282,0.789,-2.197,-1.648,-4.761
-0.521,-0.228,0.722,-4.395,-50.964,24.109
-0.520,-0.216,0.736,1.709,-52.551,26.123
-0.528,-0.198,0.742,8.301,-51.025,28.015
-0.534,-0.158,0.749,8.789,-50.598,27.527
-0.538,-0.145,0.749,4.395,-50.476,24.780
-0.577,-0.139,0.733,2.380,-50.110,23.743
-0.603,-0.144,0.728,4.211,-49.988,22.827
-0.632,-0.156,0.755,7.385,-49.438,21.973
-0.636,-0.160,0.771,12.512,-46.204,18.799
-0.633,-0.169,0.783,13.123,-44.373,16.785
-0.625,-0.177,0.787,11.780,-41.626,13.672
-0.623,-0.197,0.796,11.841,-39.185,13.367
-0.634,-0.204,0.793,14.771,-32.593,15.198
-0.656,-0.211,0.795,16.113,-30.396,16.174
-0.657,-0.214,0.804,16.235,-27.344,16.541
-0.649,-0.218,0.819,14.893,-25.208,15.930
-0.651,-0.221,0.815,13.062,-23.132,15.015
-0.666,-0.226,0.805,10.132,-20.203,12.939
-0.670,-0.224,0.806,10.132,-18.494,12.024
-0.670,-0.219,0.810,10.803,-13.977,9.888
-0.672,-0.227,0.805,9.827,-11.780,8.728
-0.675,-0.238,0.792,7.019,-9.338,7.324
-0.668,-0.240,0.770,6.592,-9.277,6.470
-0.657,-0.234,0.775,7.324,-10.803,4.089
-0.641,-0.233,0.798,7.446,-10.803,3.296
-0.643,-0.237,0.804,6.531,-7.874,2.869
-0.658,-0.247,0.796,5.737,-5.798,2.563
-0.660,-0.252,0.791,4.578,-3.723,1.343
-0.651,-0.261,0.791,3.784,-3.052,0.916
-0.645,-0.261,0.786,1.526,-1.099,0.427
-0.607,-0.196,0.742,8.972,-44.434,31.860
-0.611,-0.199,0.760,12.390,-38.818,30.457
-0.609,-0.195,0.775,14.343,-35.950,30.457
-0.620,-0.180,0.798,17.090,-29.175,31.067
-0.641,-0.178,0.791,16.602,-25.208,30.396
-0.664,-0.187,0.774,13.184,-20.691,27.588
-0.682,-0.214,0.757,12.390,-19.897,26.184
-0.674,-0.219,0.758,13.489,-16.907,23.621
-0.639,-0.213,0.767,14.038,-15.503,22.522
-0.628,-0.213,0.773,13.611,-13.000,20.996
-0.647,-0.227,0.761,13.184,-11.230,20.569
-0.663,-0.237,0.753,11.414,-9.033,19.470
-0.680,-0.243,0.753,9.949,-9.521,18.188
-0.679,-0.240,0.760,8.179,-11.292,15.137
-0.663,-0.236,0.782,8.118,-11.108,14.099
-0.659,-0.238,0.794,8.423,-7.263,14.160
-0.665,-0.238,0.809,7.568,-4.211,14.587
-0.672,-0.236,0.803,3.540,0.732,13.245
-0.676,-0.237,0.777,1.648,0.854,11.536
-0.670,-0.239,0.774,0.366,-2.258,6.897
-0.651,-0.252,0.787,0.610,-3.540,4.761
-0.642,-0.259,0.797,1.099,-3.601,2.747
-0.633,-0.265,0.806,1.404,-2.197,2.869
-0.632,-0.263,0.800,2.014,1.343,3.357
-0.627,-0.255,0.787,1.953,1.770,2.930
-0.623,-0.252,0.787,1.709,1.343,1.648
-0.605,-0.255,0.803,0.732,0.366,-2.136
-0.595,-0.258,0.812,-0.183,0.732,-3.174
-0.589,-0.261,0.810,-2.197,4.028,-3.418
-0.587,-0.264,0.781,-2.563,5.371,-3.052
-0.284,-0.155,0.774,0.366,-45.410,61.340
-0.299,-0.156,0.780,0.488,-45.410,58.044
-0.330,-0.165,0.786,-0.122,-45.410,56.396
-0.351,-0.171,0.783,0.916,-46.753,56.152
-0.393,-0.182,0.798,2.808,-47.852,56.946
-0.420,-0.192,0.829,5.859,-44.922,57.861
-0.433,-0.190,0.829,6.409,-41.138,57.312
-0.444,-0.182,0.817,6.714,-36.926,53.833
-0.440,-0.157,0.805,6.958,-37.659,51.086
-0.436,-0.149,0.806,8.301,-38.696,46.814
-0.469,-0.149,0.791,9.827,-37.354,46.265
-0.497,-0.149,0.781,13.916,-33.691,44.617
-0.525,-0.164,0.773,14.648,-32.959,42.053
-0.521,-0.180,0.769,11.169,-37.415,36.621
-0.498,-0.211,0.762,9.155,-41.199,34.729
-0.492,-0.217,0.765,9.033,-43.701,33.386
-0.502,-0.213,0.772,10.071,-42.175,33.691
-0.520,-0.213,0.774,10.681,-38.574,34.790
-0.568,-0.227,0.769,10.193,-37.903,34.851
-0.584,-0.232,0.768,10.864,-38.269,33.813
-0.593,-0.230,0.785,12.146,-38.330,33.020
-0.598,-0.229,0.799,13.611,-37.598,32.166
-0.618,-0.223,0.821,15.076,-33.752,29.663
-0.632,-0.219,0.824,14.709,-31.311,28.137
-0.650,-0.216,0.823,13.245,-26.306,24.414
-0.650,-0.219,0.820,12.207,-24.475,22.217
-0.641,-0.225,0.819,9.766,-22.949,17.700
-0.614,-0.235,0.818,9.094,-22.095,16.052
-0.608,-0.238,0.815,9.521,-18.738,14.954
-0.622,-0.237,0.808,10.559,-16.724,15.137
-0.325,-0.118,0.782,19.775,-46.631,41.626
-0.350,-0.159,0.796,19.897,-47.729,40.100
-0.363,-0.175,0.794,20.081,-49.622,38.269
-0.373,-0.188,0.801,21.606,-49.988,37.598
-0.376,-0.188,0.808,24.658,-47.791,37.964
-0.405,-0.182,0.808,24.658,-46.204,39.001
-0.432,-0.187,0.802,22.644,-44.800,39.063
-0.475,-0.221,0.818,21.301,-45.044,37.903
-0.488,-0.240,0.839,19.714,-42.786,36.072
-0.509,-0.263,0.854,19.287,-40.222,35.645
-0.514,-0.266,0.853,18.616,-37.292,34.973
-0.520,-0.258,0.865,18.250,-35.767,34.363
-0.533,-0.248,0.869,18.494,-29.236,33.264
-0.573,-0.235,0.862,18.921,-24.780,32.593
-0.587,-0.232,0.851,19.104,-20.996,31.311
-0.584,-0.237,0.835,16.907,-17.761,26.550
-0.569,-0.248,0.826,14.221,-17.395,24.170
-0.546,-0.264,0.806,9.705,-18.311,20.386
-0.542,-0.263,0.802,8.545,-18.860,19.531
-0.550,-0.255,0.796,8.606,-18.799,19.226
-0.562,-0.248,0.794,9.583,-18.738,19.287
-0.571,-0.243,0.798,11.963,-19.897,17.456
-0.567,-0.234,0.831,12.268,-21.484,15.076
-0.557,-0.237,0.851,9.338,-23.682,9.766
-0.546,-0.254,0.868,6.775,-23.315,8.057
-0.551,-0.263,0.862,4.211,-19.531,6.897
-0.558,-0.267,0.847,5.249,-17.639,6.592
-0.549,-0.264,0.852,8.301,-15.076,5.249
-0.533,-0.263,0.869,7.874,-13.977,4.028
-0.530,-0.266,0.864,2.502,-12.085,1.038
-0.503,-0.218,0.811,21.362,-44.678,25.818
-0.516,-0.214,0.826,20.386,-43.091,25.024
-0.515,-0.214,0.840,17.029,-39.978,22.095
-0.521,-0.218,0.839,14.954,-38.269,21.240
-0.558,-0.231,0.808,12.451,-33.875,20.569
-0.577,-0.236,0.790,13.245,-32.166,19.958
-0.582,-0.242,0.791,17.029,-33.691,17.761
-0.573,-0.244,0.807,18.433,-35.706,16.235
-0.566,-0.246,0.828,19.775,-35.828,14.893
-0.577,-0.242,0.862,20.142,-32.532,15.564
-0.590,-0.236,0.869,19.226,-22.644,16.174
-0.612,-0.229,0.855,17.273,-19.470,14.954
-0.619,-0.236,0.842,11.414,-20.813,9.705
-0.609,-0.256,0.840,8.789,-23.865,6.592
-0.596,-0.264,0.851,6.531,-26.306,2.869
-0.583,-0.282,0.873,6.531,-24.109,3.113
-0.590,-0.285,0.877,7.568,-14.893,6.348
-0.604,-0.276,0.862,7.935,-10.254,7.568
-0.604,-0.267,0.856,7.019,-6.165,7.263
-0.604,-0.265,0.852,5.676,-5.798,6.042
-0.603,-0.267,0.847,3.235,-5.310,4.028
-0.582,-0.259,0.842,3.113,-4.639,3.662
-0.567,-0.250,0.847,3.601,-1.648,3.113
-0.550,-0.240,0.849,2.686,0.732,2.502
-0.551,-0.244,0.837,-2.014,5.554,0.671
-0.559,-0.258,0.789,-3.845,6.287,0.061
-0.557,-0.265,0.775,-3.174,3.296,-0.366
-0.531,-0.268,0.792,-1.404,1.343,-0.793
-0.517,-0.269,0.807,1.099,0.000,-1.709
-0.511,-0.274,0.818,1.221,0.427,-1.953
-0.579,-0.132,0.850,6.897,-15.808,14.832
-0.582,-0.139,0.840,4.517,-13.855,13.000
-0.602,-0.148,0.819,5.249,-13.000,12.573
-0.604,-0.144,0.817,8.057,-11.780,11.047
-0.587,-0.141,0.822,8.301,-11.292,9.766
-0.578,-0.149,0.819,7.019,-10.986,7.385
-0.572,-0.165,0.814,6.165,-11.597,6.104
-0.570,-0.170,0.819,5.188,-12.695,4.883
-0.573,-0.186,0.828,3.601,-13.306,3.540
-0.576,-0.192,0.828,3.601,-12.634,3.662
-0.568,-0.190,0.835,5.615,-10.803,4.639
-0.562,-0.188,0.840,6.531,-9.338,5.005
-0.561,-0.185,0.842,6.226,-5.798,5.188
-0.566,-0.184,0.834,5.066,-4.761,4.944
-0.567,-0.189,0.831,3.052,-4.517,3.906
-0.562,-0.204,0.842,2.563,-3.967,3.479
-0.559,-0.208,0.845,0.732,-0.732,3.662
-0.563,-0.210,0.830,-0.732,1.160,4.272
-0.565,-0.210,0.816,-1.953,2.747,5.188
-0.560,-0.205,0.800,-0.854,2.502,5.005
-0.554,-0.201,0.801,1.648,1.221,3.967
-0.542,-0.196,0.812,1.587,0.977,3.479
-0.539,-0.197,0.812,-0.793,1.587,3.357
-0.545,-0.202,0.800,-1.587,2.014,3.662
-0.552,-0.201,0.795,-0.610,1.770,3.967
-0.553,-0.190,0.805,0.122,0.793,3.662
-0.547,-0.188,0.814,-0.366,-0.183,2.625
-0.542,-0.191,0.816,-1.160,0.610,2.319
-0.544,-0.197,0.810,-2.197,2.197,1.953
-0.553,-0.204,0.802,-2.136,2.258,1.648