aX,aY,aZ,gX,gY,gZ
0.771,-0.019,-0.199,-46.814,155.090,20.203
0.793,-0.014,-0.240,-41.382,154.846,20.569
0.798,-0.007,-0.266,-30.701,160.461,22.156
0.778,0.016,-0.345,-27.283,160.339,22.339
0.770,0.032,-0.386,-21.484,148.499,18.250
0.790,0.064,-0.436,-19.043,141.113,15.442
0.801,0.076,-0.451,-14.832,133.484,12.329
0.806,0.102,-0.479,-12.634,132.874,11.353
0.799,0.124,-0.495,-13.977,129.883,8.179
0.781,0.141,-0.550,-18.860,124.023,5.371
0.783,0.130,-0.583,-30.518,104.370,-0.793
0.801,0.082,-0.645,-33.203,95.032,-3.540
0.811,0.059,-0.661,-29.480,82.153,-8.423
0.844,0.035,-0.647,-25.696,77.942,-10.132
0.863,0.029,-0.632,-21.606,75.806,-9.399
0.867,0.014,-0.638,-21.057,77.393,-6.958
0.856,0.005,-0.654,-18.188,78.857,-0.977
0.866,-0.012,-0.710,-13.550,76.965,0.916
0.870,-0.017,-0.736,-2.014,73.425,6.897
0.865,0.005,-0.771,4.150,74.585,12.207
0.853,0.033,-0.770,10.376,76.477,16.663
0.825,0.087,-0.761,13.855,77.942,23.193
0.800,0.096,-0.783,8.362,71.472,27.039
0.755,0.107,-0.827,6.958,65.125,26.184
0.744,0.115,-0.833,6.348,57.922,24.109
0.735,0.129,-0.829,6.104,45.898,19.287
0.722,0.158,-0.805,5.493,41.992,16.174
0.718,0.168,-0.796,-0.793,32.593,9.644
0.708,0.167,-0.808,-5.310,26.672,6.714
0.704,0.161,-0.825,-9.094,15.991,-0.305
0.792,0.209,-0.333,-45.959,92.163,22.949
0.764,0.185,-0.397,-61.462,93.750,19.226
0.758,0.152,-0.461,-63.904,94.666,15.564
0.769,0.126,-0.501,-54.932,89.722,10.925
0.814,0.108,-0.509,-47.302,89.966,11.047
0.825,0.110,-0.510,-37.231,99.915,15.686
0.814,0.107,-0.561,-34.363,104.309,18.860
0.809,0.108,-0.589,-27.283,105.957,25.085
0.806,0.121,-0.615,-23.193,105.774,27.588
0.797,0.128,-0.621,-19.165,106.750,31.677
0.785,0.141,-0.645,-18.616,106.689,32.227
0.771,0.143,-0.666,-19.958,102.478,33.875
0.738,0.161,-0.717,-21.118,99.487,35.767
0.723,0.169,-0.736,-17.273,92.651,34.729
0.711,0.187,-0.762,-15.930,88.013,32.349
0.709,0.196,-0.780,-20.752,75.317,27.222
0.696,0.206,-0.815,-24.048,68.787,24.658
0.688,0.204,-0.829,-26.245,57.678,19.958
0.688,0.200,-0.842,-24.292,53.162,18.372
0.691,0.203,-0.836,-18.494,48.706,16.479
0.688,0.221,-0.819,-17.517,47.791,15.564
0.680,0.226,-0.817,-21.545,44.495,13.794
0.667,0.218,-0.834,-23.437,42.114,13.000
0.662,0.211,-0.844,-23.376,39.734,12.329
0.655,0.204,-0.866,-17.334,36.194,10.376
0.654,0.206,-0.881,-13.489,34.302,9.216
0.650,0.212,-0.897,-9.216,28.076,6.409
0.651,0.214,-0.892,-9.033,23.926,4.456
0.653,0.213,-0.882,-10.498,15.869,0.977
0.651,0.200,-0.871,-10.742,13.123,0.061
0.806,0.059,-0.072,-25.757,135.559,13.550
0.841,0.057,-0.095,-32.593,131.042,14.832
0.850,0.062,-0.117,-42.297,125.610,17.334
0.854,0.055,-0.186,-43.457,125.732,16.052
0.851,0.046,-0.222,-40.039,125.854,14.282
0.842,0.054,-0.284,-37.720,124.146,14.709
0.836,0.074,-0.310,-39.490,114.929,12.756
0.840,0.106,-0.365,-44.067,107.788,9.277
0.849,0.100,-0.403,-49.622,99.243,4.944
0.875,0.069,-0.465,-54.077,79.773,-1.892
0.890,0.062,-0.469,-49.927,72.144,-3.662
0.906,0.066,-0.449,-34.729,68.115,-5.005
0.938,0.102,-0.376,-28.625,71.655,-4.150
0.931,0.116,-0.359,-23.682,84.595,-0.732
0.892,0.123,-0.402,-23.865,89.416,0.366
0.877,0.116,-0.442,-27.710,84.839,-0.916
0.882,0.097,-0.502,-30.151,76.111,-2.869
0.897,0.086,-0.511,-25.940,59.143,-10.559
0.938,0.059,-0.498,-22.461,56.702,-11.292
0.958,0.063,-0.494,-19.531,62.805,-4.272
0.947,0.072,-0.542,-20.203,66.345,-0.916
0.926,0.070,-0.590,-23.315,66.711,2.075
0.903,0.057,-0.667,-22.705,62.256,1.282
0.911,0.050,-0.678,-15.503,49.683,-0.183
0.932,0.051,-0.656,-10.071,46.570,0.793
0.932,0.062,-0.639,-3.113,47.668,3.906
0.910,0.074,-0.620,-3.357,47.852,5.066
0.900,0.072,-0.618,-4.883,46.509,5.615
0.895,0.064,-0.618,-6.775,40.771,5.859
0.881,0.047,-0.625,-5.432,38.696,6.287
0.836,0.038,0.137,-35.217,109.741,-13.306
0.856,0.027,0.122,-42.297,109.497,-13.489
0.875,-0.001,0.055,-43.518,112.427,-12.512
0.875,-0.010,0.019,-42.480,115.051,-11.841
0.875,-0.008,-0.029,-34.912,116.882,-11.780
0.882,-0.005,-0.046,-31.128,116.638,-11.902
0.892,-0.008,-0.073,-29.480,115.784,-12.024
0.906,-0.028,-0.146,-30.823,113.098,-11.353
0.920,-0.033,-0.211,-29.663,103.333,-8.118
0.927,-0.028,-0.230,-25.513,100.159,-6.775
0.932,-0.019,-0.241,-13.367,101.868,-3.418
0.917,0.007,-0.266,-6.958,103.821,0.549
0.898,0.032,-0.278,3.540,106.995,9.094
0.857,0.059,-0.334,6.104,107.422,11.536
0.840,0.059,-0.382,10.559,99.426,12.756
0.832,0.071,-0.466,16.479,89.844,11.169
0.845,0.095,-0.481,24.963,72.388,5.371
0.902,0.154,-0.446,24.292,65.735,1.770
0.918,0.178,-0.424,10.559,58.350,-3.784
0.906,0.167,-0.474,2.075,56.763,-6.287
0.899,0.146,-0.521,-3.784,48.157,-12.573
0.924,0.125,-0.538,-2.014,42.786,-16.174
0.952,0.132,-0.508,-3.174,38.940,-19.226
0.978,0.132,-0.464,-8.911,40.833,-17.883
0.977,0.113,-0.473,-15.564,43.701,-16.052
0.970,0.061,-0.523,-21.606,47.241,-12.146
0.963,0.050,-0.540,-19.287,48.035,-9.521
0.945,0.068,-0.557,-9.766,49.622,-4.822
0.940,0.089,-0.553,-7.690,49.683,-2.869
0.923,0.114,-0.580,-13.611,46.936,0.488
0.845,0.019,-0.268,9.399,153.198,56.885
0.829,0.048,-0.285,10.559,147.949,59.570
0.811,0.108,-0.305,9.216,146.057,59.631
0.810,0.141,-0.309,-4.395,140.625,60.486
0.798,0.187,-0.375,-16.174,137.756,60.547
0.785,0.193,-0.445,-38.391,129.761,57.068
0.760,0.185,-0.602,-43.640,122.925,53.406
0.752,0.179,-0.665,-39.734,101.929,45.227
0.752,0.193,-0.697,-32.837,90.515,40.894
0.759,0.209,-0.677,-17.334,75.562,31.860
0.771,0.231,-0.628,-10.986,72.876,28.687
0.772,0.239,-0.618,-6.287,72.510,28.076
0.759,0.257,-0.607,2.319,72.998,29.846
0.758,0.271,-0.598,6.409,73.425,30.334
0.756,0.287,-0.596,7.751,75.684,31.738
0.737,0.307,-0.632,4.639,76.050,31.738
0.723,0.312,-0.658,-3.357,72.083,28.564
0.697,0.317,-0.690,-6.775,68.542,25.574
0.692,0.312,-0.701,-13.245,58.472,18.250
0.701,0.298,-0.731,-16.296,52.185,15.015
0.707,0.291,-0.745,-20.203,40.710,8.362
0.720,0.276,-0.745,-20.996,36.377,5.127
0.725,0.271,-0.734,-20.508,31.921,2.075
0.736,0.268,-0.726,-19.653,32.043,2.563
0.741,0.272,-0.735,-19.165,34.668,5.127
0.739,0.276,-0.769,-19.958,36.316,6.226
0.726,0.269,-0.800,-20.630,37.109,7.019
0.711,0.261,-0.847,-17.456,33.142,6.836
0.716,0.265,-0.845,-13.794,29.053,5.859
0.724,0.272,-0.828,-8.545,21.912,4.517
0.396,-0.210,0.888,13.428,211.426,39.063
0.410,-0.185,0.799,15.442,211.731,39.734
0.432,-0.177,0.759,16.052,197.449,40.894
0.509,-0.170,0.703,16.113,187.988,42.603
0.549,-0.166,0.684,16.174,177.795,46.936
0.614,-0.160,0.642,14.282,176.758,49.194
0.632,-0.159,0.612,7.629,176.514,53.894
0.652,-0.158,0.549,4.883,175.720,56.458
0.661,-0.149,0.519,2.869,173.889,58.899
0.673,-0.108,0.454,-1.343,167.603,60.669
0.681,-0.090,0.433,-5.249,164.124,59.692
0.689,-0.077,0.419,-14.160,159.241,56.641
0.697,-0.052,0.380,-16.785,159.424,54.932
0.695,-0.040,0.348,-17.883,162.354,51.636
0.692,-0.021,0.281,-17.212,162.781,49.622
0.699,-0.019,0.249,-19.409,156.311,46.387
0.731,-0.006,0.205,-22.095,150.391,46.021
0.750,0.004,0.196,-24.658,146.057,43.518
0.783,0.005,0.162,-22.949,149.597,42.053
0.794,0.004,0.140,-16.479,159.668,44.250
0.810,0.007,0.089,-14.221,163.513,47.791
0.802,0.012,0.054,-10.193,170.715,53.772
0.778,0.028,-0.034,-7.202,173.218,53.345
0.779,0.042,-0.067,-4.700,169.128,52.856
0.807,0.084,-0.104,-7.935,164.795,54.687
0.817,0.098,-0.137,-23.987,162.659,60.547
0.797,0.086,-0.284,-32.166,162.476,63.599
0.780,0.080,-0.371,-33.630,153.442,66.162
0.761,0.126,-0.463,-27.222,146.484,65.979
0.750,0.164,-0.469,-19.348,140.991,65.613
0.808,-0.043,-0.024,-20.874,182.251,53.650
0.821,-0.012,-0.052,-21.057,181.152,56.458
0.813,0.000,-0.085,-24.231,182.190,58.533
0.795,0.033,-0.164,-33.630,178.162,62.500
0.788,0.049,-0.202,-37.415,174.927,64.331
0.781,0.062,-0.245,-40.771,169.800,66.467
0.754,0.088,-0.347,-39.917,166.138,66.040
0.745,0.103,-0.404,-33.020,151.978,62.500
0.744,0.161,-0.466,-29.663,143.066,60.242
0.752,0.195,-0.472,-28.625,130.371,56.641
0.760,0.237,-0.489,-30.457,127.747,56.213
0.751,0.253,-0.505,-33.081,126.953,58.044
0.718,0.281,-0.539,-34.241,126.648,58.594
0.699,0.290,-0.564,-38.086,122.925,53.650
0.674,0.299,-0.638,-41.016,118.164,48.279
0.666,0.301,-0.676,-50.598,99.060,35.889
0.667,0.300,-0.710,-55.420,86.121,29.602
0.676,0.293,-0.703,-58.472,74.097,22.522
0.699,0.272,-0.698,-63.538,61.035,13.367
0.698,0.264,-0.712,-66.589,58.167,12.451
0.694,0.236,-0.776,-66.345,55.054,10.132
0.700,0.222,-0.808,-62.256,54.260,9.705
0.709,0.216,-0.825,-48.889,56.213,13.062
0.706,0.229,-0.826,-41.748,59.814,15.259
0.695,0.238,-0.817,-33.569,65.674,17.578
0.679,0.248,-0.796,-34.668,65.063,17.944
0.651,0.239,-0.806,-41.870,60.608,18.311
0.630,0.230,-0.822,-43.945,58.533,17.761
0.614,0.222,-0.832,-41.504,52.856,14.771
0.613,0.211,-0.839,-38.757,49.744,13.733
0.709,0.017,-0.352,15.320,224.854,88.135
0.674,0.055,-0.390,11.780,212.585,88.928
0.625,0.113,-0.486,0.793,180.847,87.158
0.616,0.137,-0.531,-9.277,148.743,80.139
0.641,0.185,-0.585,-15.137,135.742,76.355
0.653,0.209,-0.601,-27.466,119.568,72.266
0.642,0.241,-0.645,-29.419,117.554,70.862
0.628,0.250,-0.671,-27.283,118.774,69.275
0.581,0.282,-0.714,-16.541,122.681,66.284
0.558,0.303,-0.721,-10.742,122.375,63.354
0.547,0.325,-0.727,-4.883,113.586,53.955
0.550,0.328,-0.736,-5.249,106.567,49.866
0.554,0.341,-0.751,-5.920,95.276,43.884
0.552,0.357,-0.747,-6.287,92.285,41.199
0.550,0.379,-0.745,-16.724,87.769,36.133
0.543,0.371,-0.767,-27.161,84.229,34.424
0.529,0.333,-0.842,-41.565,76.111,30.090
0.523,0.314,-0.879,-41.199,73.853,27.466
0.504,0.310,-0.919,-34.119,70.557,25.452
0.498,0.314,-0.921,-31.250,66.833,23.987
0.498,0.317,-0.915,-30.334,56.274,20.081
0.500,0.313,-0.915,-30.884,52.612,18.250
0.495,0.308,-0.931,-30.945,47.424,14.709
0.490,0.303,-0.957,-30.640,43.823,12.939
0.493,0.301,-0.962,-30.640,36.011,10.132
0.505,0.292,-0.980,-30.029,33.447,10.071
0.504,0.291,-0.992,-24.902,32.227,11.536
0.486,0.303,-1.008,-21.484,31.555,11.475
0.478,0.310,-1.003,-18.005,25.330,8.240
0.480,0.304,-0.979,-18.188,20.386,5.798
0.706,-0.063,0.212,-15.869,172.424,30.334
0.725,-0.053,0.201,-2.075,181.702,29.053
0.761,-0.053,0.136,0.488,187.805,29.297
0.774,-0.067,0.077,2.075,194.214,31.799
0.793,-0.072,-0.028,4.089,193.237,34.424
0.801,-0.061,-0.057,9.705,188.049,39.734
0.817,-0.037,-0.109,12.817,187.134,42.297
0.817,-0.026,-0.139,18.982,189.514,49.377
0.781,0.037,-0.204,20.752,190.491,52.124
0.752,0.080,-0.247,12.451,182.068,51.208
0.724,0.129,-0.355,-0.244,169.250,47.791
0.730,0.124,-0.413,-30.762,131.287,39.246
0.763,0.096,-0.498,-38.574,114.502,35.583
0.779,0.093,-0.521,-38.147,104.614,32.288
0.792,0.109,-0.530,-21.667,103.638,27.100
0.798,0.124,-0.512,-11.963,107.666,26.550
0.816,0.155,-0.472,-1.160,118.835,29.114
0.814,0.156,-0.475,1.160,126.709,30.701
0.803,0.151,-0.501,2.014,140.564,38.940
0.752,0.143,-0.575,3.479,142.090,43.091
0.730,0.146,-0.604,12.512,138.184,45.227
0.713,0.166,-0.640,15.747,133.484,45.288
0.712,0.183,-0.655,13.367,120.544,46.143
0.719,0.204,-0.702,9.888,115.112,46.448
0.722,0.206,-0.744,5.310,110.352,48.767
0.692,0.215,-0.835,6.409,109.680,50.232
0.673,0.228,-0.869,14.465,104.126,51.331
0.646,0.283,-0.880,18.494,99.365,50.903
0.634,0.313,-0.869,18.799,89.233,47.913
0.604,0.354,-0.854,14.771,83.496,45.471
0.754,-0.083,-0.170,18.188,221.985,59.937
0.726,-0.042,-0.310,20.752,217.285,63.171
0.730,-0.028,-0.375,17.151,197.571,64.209
0.774,0.012,-0.440,13.550,187.439,65.125
0.788,0.050,-0.442,5.188,177.917,70.313
0.768,0.122,-0.473,-0.427,177.917,73.059
0.736,0.140,-0.525,-9.460,175.842,75.745
0.683,0.148,-0.658,-10.437,171.570,74.829
0.678,0.150,-0.714,-7.263,157.227,71.106
0.684,0.186,-0.788,-5.676,150.269,68.909
0.673,0.211,-0.809,-2.014,138.672,60.608
0.652,0.242,-0.828,-1.282,132.263,56.519
0.643,0.255,-0.828,-6.653,113.464,53.223
0.625,0.269,-0.832,-10.132,103.394,50.720
0.623,0.267,-0.842,-13.367,88.867,43.640
0.609,0.275,-0.851,-13.123,84.045,40.833
0.598,0.283,-0.850,-11.841,75.684,35.339
0.590,0.303,-0.842,-12.695,70.557,32.349
0.594,0.310,-0.848,-18.982,60.608,25.574
0.590,0.307,-0.888,-23.560,56.091,22.217
0.582,0.299,-0.905,-30.090,46.448,16.235
0.570,0.286,-0.909,-30.701,41.443,13.123
0.573,0.278,-0.899,-29.907,36.682,9.766
0.590,0.262,-0.874,-26.428,30.457,5.615
0.594,0.257,-0.869,-24.536,30.029,5.188
0.593,0.251,-0.867,-20.996,31.555,5.493
0.590,0.236,-0.873,-19.226,31.677,5.859
0.591,0.229,-0.883,-14.954,29.724,5.371
0.593,0.211,-0.904,-12.756,27.771,4.883
0.595,0.204,-0.907,-7.019,23.437,6.592
0.746,-0.018,-0.119,31.311,201.477,57.373
0.735,0.032,-0.194,38.086,198.730,62.927
0.729,0.056,-0.241,35.706,195.435,63.538
0.749,0.106,-0.302,21.973,181.641,61.890
0.780,0.132,-0.310,9.766,172.852,61.829
0.792,0.149,-0.335,-22.339,164.490,65.613
0.753,0.132,-0.465,-32.288,165.100,65.857
0.738,0.115,-0.526,-30.151,164.612,64.209
0.734,0.118,-0.593,-23.621,163.208,64.941
0.734,0.136,-0.637,-14.832,157.471,67.444
0.713,0.169,-0.742,-14.160,150.757,66.223
0.706,0.181,-0.775,-16.174,126.892,59.631
0.706,0.208,-0.774,-17.700,112.610,56.519
0.709,0.226,-0.746,-19.958,92.957,51.147
0.720,0.249,-0.693,-18.799,90.271,48.462
0.716,0.246,-0.687,-10.864,97.351,48.218
0.669,0.269,-0.711,-6.836,100.037,51.575
0.641,0.293,-0.725,-4.395,97.046,50.659
0.611,0.321,-0.767,-6.287,92.407,46.326
0.597,0.328,-0.789,-9.827,85.327,41.321
0.586,0.330,-0.806,-19.592,65.735,30.884
0.592,0.321,-0.806,-24.109,56.946,25.696
0.597,0.310,-0.804,-27.527,47.791,17.212
0.598,0.294,-0.799,-26.184,46.875,14.587
0.595,0.292,-0.796,-22.156,48.706,12.146
0.585,0.288,-0.793,-21.240,49.988,11.292
0.582,0.280,-0.801,-23.621,49.011,8.972
0.587,0.255,-0.850,-25.879,46.326,8.179
0.597,0.243,-0.880,-27.161,40.100,8.118
0.609,0.224,-0.913,-24.292,38.940,8.057
0.541,0.259,-0.767,11.047,160.767,69.946
0.501,0.317,-0.762,6.165,152.283,67.932
0.472,0.336,-0.781,-11.963,134.033,61.829
0.459,0.330,-0.810,-20.386,126.343,58.655
0.448,0.328,-0.838,-27.039,116.333,52.673
0.423,0.338,-0.877,-28.381,112.488,49.255
0.412,0.341,-0.905,-31.555,99.854,39.856
0.397,0.331,-0.999,-34.363,91.370,36.011
0.393,0.328,-1.043,-36.621,74.829,29.968
0.394,0.328,-1.081,-34.485,68.420,25.513
0.402,0.328,-1.074,-30.762,55.786,17.456
0.411,0.326,-1.033,-30.334,49.438,15.198
0.413,0.321,-1.019,-28.381,41.321,10.254
0.420,0.308,-1.002,-26.855,38.452,7.446
0.424,0.303,-0.989,-26.123,32.593,3.296
0.434,0.294,-0.957,-26.917,29.968,2.319
0.438,0.287,-0.944,-27.710,27.222,2.808
0.435,0.279,-0.932,-26.978,27.832,3.906
0.430,0.276,-0.936,-25.024,30.762,6.226
0.418,0.264,-0.957,-24.414,31.677,7.080
0.409,0.257,-0.966,-22.644,30.334,7.263
0.396,0.250,-0.973,-21.118,28.564,6.714
0.396,0.249,-0.974,-19.775,26.855,6.775
0.392,0.246,-0.991,-19.531,25.452,8.789
0.381,0.238,-1.014,-19.897,25.330,9.521
0.366,0.228,-1.045,-16.235,22.949,9.338
0.364,0.234,-1.043,-12.268,21.362,9.277
0.358,0.243,-1.043,-6.104,19.836,8.423
0.344,0.254,-1.047,-5.676,17.883,7.141
0.343,0.254,-1.040,-8.667,9.705,3.845
0.522,0.233,-0.648,3.601,163.208,61.768
0.510,0.255,-0.700,1.282,163.940,63.049
0.493,0.272,-0.723,-6.042,167.541,67.566
0.440,0.296,-0.767,-10.315,167.603,69.275
0.412,0.302,-0.788,-19.043,160.461,69.092
0.362,0.300,-0.853,-23.132,154.114,67.017
0.341,0.292,-0.908,-28.015,136.047,62.927
0.296,0.305,-0.993,-28.748,125.427,60.486
0.283,0.320,-0.998,-31.433,103.271,52.307
0.279,0.344,-0.979,-35.034,92.468,48.523
0.276,0.346,-0.983,-42.236,77.087,41.870
0.254,0.327,-1.022,-43.091,72.144,38.208
0.246,0.318,-1.039,-37.720,63.660,31.433
0.245,0.318,-1.041,-33.203,59.937,28.931
0.245,0.323,-1.033,-24.780,55.481,24.292
0.250,0.330,-1.020,-23.010,55.115,21.484
0.252,0.329,-1.027,-23.437,54.016,15.015
0.244,0.316,-1.061,-25.879,51.025,14.160
0.232,0.308,-1.078,-29.297,46.387,14.648
0.222,0.291,-1.100,-27.283,35.767,12.634
0.231,0.289,-1.090,-21.362,31.616,9.766
0.245,0.298,-1.048,-13.611,25.818,5.737
0.247,0.302,-1.036,-14.526,23.804,4.883
0.248,0.293,-1.041,-20.203,21.179,3.357
0.247,0.282,-1.056,-22.461,19.714,2.808
0.245,0.270,-1.071,-21.057,16.052,2.502
0.248,0.259,-1.080,-16.907,14.465,2.686
0.252,0.265,-1.071,-8.301,13.855,3.113
0.255,0.280,-1.052,-6.592,14.343,3.113
0.256,0.284,-1.048,-9.888,13.855,4.028
0.710,0.047,-0.333,63.477,273.865,104.248
0.631,0.114,-0.450,57.678,268.188,113.281
0.596,0.149,-0.492,43.091,247.986,126.160
0.518,0.217,-0.590,33.386,233.887,130.066
0.478,0.255,-0.633,14.648,197.815,130.310
0.419,0.322,-0.682,8.057,179.626,125.366
0.403,0.348,-0.692,-3.296,146.606,112.549
0.388,0.387,-0.695,-10.254,131.287,106.934
0.391,0.396,-0.703,-27.222,107.178,96.924
0.395,0.392,-0.734,-35.217,99.487,92.712
0.393,0.382,-0.757,-45.898,90.210,86.426
0.393,0.357,-0.829,-47.424,87.769,85.571
0.382,0.360,-0.871,-41.321,88.379,87.219
0.319,0.408,-0.918,-35.522,89.844,86.243
0.280,0.442,-0.919,-29.968,85.937,77.454
0.226,0.507,-0.890,-33.569,78.369,70.679
0.213,0.524,-0.877,-48.645,58.472,57.007
0.197,0.523,-0.886,-54.199,51.147,50.598
0.190,0.516,-0.898,-56.519,47.058,43.945
0.186,0.504,-0.895,-57.190,44.434,30.579
0.192,0.489,-0.887,-58.838,43.457,24.902
0.207,0.468,-0.891,-64.331,41.321,16.724
0.208,0.420,-0.958,-63.110,41.199,12.207
0.210,0.401,-1.008,-52.734,44.983,7.629
0.219,0.390,-1.079,-47.180,45.532,6.592
0.221,0.391,-1.106,-38.635,42.358,3.662
0.213,0.406,-1.163,-34.363,39.612,2.502
0.209,0.419,-1.189,-24.414,33.813,-1.526
0.212,0.445,-1.220,-20.691,30.151,-4.272
0.216,0.454,-1.228,-16.785,19.714,-10.315
0.655,-0.111,0.412,6.714,232.666,55.969
0.650,-0.063,0.328,15.747,235.840,56.763
0.652,-0.041,0.284,16.418,232.239,52.490
0.670,-0.035,0.192,11.658,226.379,51.208
0.681,-0.046,0.135,1.343,212.219,50.476
0.711,-0.046,0.038,-0.671,206.116,50.964
0.733,-0.037,0.002,0.061,201.111,55.298
0.753,-0.030,-0.075,3.601,204.163,60.059
0.751,-0.030,-0.126,10.193,210.327,65.125
0.754,0.007,-0.227,26.611,222.229,75.439
0.758,0.046,-0.258,29.297,223.999,81.665
0.756,0.080,-0.287,19.043,220.886,96.069
0.706,0.110,-0.399,14.832,219.666,102.112
0.672,0.126,-0.469,17.883,214.294,108.459
0.613,0.193,-0.561,21.118,206.543,109.253
0.587,0.229,-0.583,25.818,185.303,107.849
0.548,0.289,-0.603,28.381,175.232,106.018
0.532,0.322,-0.604,30.701,156.982,102.295
0.508,0.392,-0.604,27.222,148.315,100.769
0.495,0.425,-0.611,10.132,135.071,97.595
0.441,0.474,-0.659,-0.366,130.554,94.727
0.414,0.489,-0.703,-10.620,125.244,90.393
0.391,0.502,-0.747,-30.701,107.788,79.102
0.363,0.515,-0.810,-39.978,96.313,72.388
0.363,0.508,-0.828,-52.795,74.951,58.105
0.375,0.483,-0.849,-55.420,67.444,52.246
0.386,0.472,-0.855,-55.481,59.692,43.396
0.412,0.458,-0.871,-54.993,58.350,41.199
0.417,0.451,-0.889,-51.636,60.730,40.039
0.404,0.439,-0.943,-48.645,62.134,39.429
0.757,0.013,0.274,11.780,236.328,49.622
0.734,0.008,0.158,6.836,243.286,49.622
0.722,-0.005,0.094,4.395,245.789,51.941
0.711,-0.034,-0.038,8.545,242.065,52.979
0.716,-0.037,-0.102,21.667,231.873,53.040
0.738,-0.035,-0.231,25.208,227.112,51.697
0.752,-0.042,-0.297,28.748,216.187,51.636
0.775,-0.045,-0.372,32.043,210.876,55.298
0.784,-0.029,-0.377,42.053,210.510,67.017
0.745,0.037,-0.397,47.913,216.492,72.754
0.702,0.073,-0.430,53.650,223.999,76.721
0.621,0.125,-0.519,59.021,230.286,80.994
0.587,0.148,-0.554,57.251,225.769,83.069
0.558,0.171,-0.580,48.401,205.627,87.646
0.512,0.221,-0.622,43.823,193.787,89.539
0.495,0.245,-0.641,33.997,172.852,90.149
0.462,0.277,-0.695,26.917,162.903,89.966
0.441,0.298,-0.717,9.094,140.747,91.370
0.383,0.350,-0.750,0.854,130.676,91.064
0.353,0.375,-0.771,-10.437,113.220,85.266
0.314,0.410,-0.812,-13.672,105.103,80.750
0.300,0.427,-0.830,-20.203,93.506,72.205
0.272,0.453,-0.871,-24.902,90.271,67.444
0.267,0.453,-0.897,-34.485,83.069,58.838
0.263,0.447,-0.957,-37.964,78.735,57.007
0.249,0.448,-0.991,-38.269,74.341,51.392
0.224,0.443,-1.054,-37.109,71.411,46.753
0.217,0.447,-1.071,-37.109,65.430,42.114
0.219,0.452,-1.075,-39.673,50.842,30.945
0.239,0.455,-1.072,-41.260,45.776,24.414
0.543,0.342,-0.733,-7.507,109.741,65.979
0.539,0.349,-0.732,-23.254,98.022,64.575
0.509,0.349,-0.760,-26.733,96.497,63.721
0.493,0.354,-0.770,-23.865,96.741,60.181
0.469,0.371,-0.758,-21.912,96.619,57.251
0.462,0.375,-0.754,-25.269,93.628,52.795
0.438,0.364,-0.788,-27.893,92.346,51.880
0.418,0.360,-0.812,-25.940,91.492,50.598
0.379,0.373,-0.845,-22.827,91.309,49.072
0.363,0.382,-0.861,-21.240,89.905,46.753
0.349,0.368,-0.896,-25.391,79.224,41.443
0.357,0.351,-0.906,-28.503,71.228,39.368
0.366,0.338,-0.910,-30.273,60.425,37.720
0.361,0.327,-0.927,-28.381,59.265,37.170
0.338,0.329,-0.946,-22.156,57.434,36.072
0.328,0.336,-0.946,-19.836,55.237,36.072
0.319,0.346,-0.947,-18.311,51.514,35.950
0.300,0.360,-0.959,-19.592,49.988,35.645
0.292,0.363,-0.973,-26.978,45.654,35.278
0.269,0.370,-1.021,-30.579,44.006,34.424
0.255,0.369,-1.044,-26.733,43.335,26.917
0.243,0.364,-1.065,-20.325,41.626,24.475
0.237,0.377,-1.050,-15.442,33.020,23.132
0.226,0.392,-1.031,-16.479,29.968,20.569
0.220,0.393,-1.032,-18.250,23.560,15.808
0.212,0.387,-1.035,-18.555,19.531,13.306
0.216,0.377,-1.038,-17.212,12.268,7.751
0.231,0.361,-1.028,-15.808,9.338,6.226
0.237,0.359,-1.020,-13.672,7.507,4.456
0.226,0.360,-1.022,-13.794,7.935,3.662
0.668,0.129,-0.476,29.053,203.674,79.895
0.652,0.150,-0.503,30.457,192.871,81.604
0.616,0.203,-0.545,28.503,186.462,82.520
0.575,0.252,-0.587,21.851,175.293,84.778
0.551,0.268,-0.618,18.738,170.715,85.815
0.526,0.283,-0.652,18.860,162.720,86.060
0.476,0.325,-0.706,21.179,158.081,84.839
0.453,0.350,-0.720,21.851,143.250,81.238
0.416,0.399,-0.733,18.616,133.972,79.102
0.404,0.417,-0.747,7.568,116.760,73.608
0.378,0.443,-0.803,0.061,109.131,70.862
0.360,0.451,-0.834,-15.503,92.224,65.430
0.327,0.453,-0.870,-20.996,82.031,62.256
0.321,0.454,-0.872,-23.987,64.209,54.810
0.324,0.462,-0.854,-23.804,58.838,50.659
0.326,0.464,-0.844,-26.855,53.528,44.006
0.328,0.455,-0.848,-30.396,52.185,42.175
0.323,0.442,-0.875,-34.668,53.833,41.321
0.300,0.420,-0.963,-32.715,55.603,40.955
0.288,0.421,-1.003,-25.513,54.932,39.246
0.263,0.439,-1.039,-22.949,52.002,37.354
0.260,0.447,-1.038,-22.278,42.114,30.762
0.256,0.450,-1.021,-22.461,36.804,27.222
0.256,0.448,-1.014,-22.888,31.921,25.696
0.256,0.437,-1.000,-22.888,23.682,23.560
0.262,0.428,-0.993,-20.447,20.752,21.179
0.277,0.422,-0.964,-12.756,17.029,18.188
0.283,0.426,-0.948,-9.766,17.151,17.883
0.284,0.431,-0.937,-8.911,19.958,18.677
0.276,0.436,-0.933,-10.681,21.118,19.409
0.500,0.240,-0.792,8.423,126.526,46.753
0.484,0.271,-0.812,9.033,123.474,47.546
0.462,0.288,-0.822,6.287,117.249,49.438
0.420,0.320,-0.833,4.395,113.708,49.500
0.408,0.334,-0.839,-3.418,107.483,48.340
0.379,0.343,-0.876,-10.132,103.333,48.218
0.360,0.338,-0.906,-18.982,91.614,47.974
0.328,0.329,-0.961,-17.212,86.548,47.180
0.312,0.336,-0.979,-5.188,83.557,43.213
0.277,0.363,-1.013,-0.488,82.764,40.283
0.264,0.375,-1.024,-2.747,69.519,34.302
0.259,0.386,-1.023,-8.423,58.350,31.799
0.266,0.385,-1.021,-19.714,43.396,26.184
0.277,0.359,-1.029,-21.484,41.077,23.560
0.278,0.354,-1.025,-19.531,39.368,25.757
0.264,0.363,-1.016,-18.127,39.734,26.733
0.253,0.368,-1.020,-15.015,40.771,24.414
0.231,0.376,-1.029,-14.221,39.185,23.010
0.223,0.377,-1.038,-16.418,31.494,20.447
0.221,0.371,-1.056,-18.616,26.428,19.348
0.224,0.365,-1.058,-21.301,17.761,17.090
0.219,0.354,-1.061,-20.691,15.137,15.808
0.210,0.353,-1.064,-14.893,11.414,13.062
0.203,0.359,-1.061,-11.475,9.399,11.047
0.207,0.358,-1.055,-9.827,6.653,8.972
0.222,0.347,-1.036,-12.695,-0.061,5.859
0.228,0.340,-1.036,-14.893,-2.136,4.578
0.236,0.324,-1.028,-13.611,-2.991,1.221
0.240,0.313,-1.032,-8.423,0.122,-0.244
0.235,0.316,-1.031,2.808,0.488,2.686
0.353,0.384,-0.835,-5.432,102.173,75.073
0.342,0.409,-0.839,-4.456,94.849,69.946
0.303,0.444,-0.904,-10.620,91.370,68.604
0.280,0.457,-0.941,-25.330,76.538,67.505
0.243,0.478,-0.972,-29.114,67.627,64.941
0.234,0.480,-0.977,-27.771,51.392,54.810
0.230,0.484,-0.960,-24.414,44.312,49.316
0.238,0.487,-0.941,-18.555,35.706,40.161
0.256,0.496,-0.911,-17.395,35.034,37.048
0.258,0.494,-0.913,-16.357,37.659,33.569
0.240,0.496,-0.926,-15.747,37.598,32.288
0.233,0.497,-0.923,-16.418,35.034,29.724
0.231,0.499,-0.907,-18.799,32.959,28.625
0.224,0.498,-0.917,-25.085,31.372,26.245
0.187,0.487,-0.991,-27.161,31.189,24.109
0.175,0.479,-1.025,-27.466,29.907,20.996
0.185,0.467,-1.044,-25.269,23.071,14.221
0.196,0.463,-1.041,-25.085,19.348,12.329
0.202,0.457,-1.041,-26.855,16.357,12.390
0.197,0.438,-1.062,-26.917,16.602,13.367
0.184,0.432,-1.075,-22.095,14.587,12.817
0.178,0.432,-1.069,-18.066,11.475,10.071
0.190,0.433,-1.047,-11.230,5.493,4.944
0.209,0.445,-0.997,-9.155,3.357,4.395
0.214,0.445,-0.976,-7.690,3.601,2.380
0.228,0.429,-0.965,-8.301,4.639,4.211
0.227,0.423,-0.968,-8.606,6.287,6.531
0.217,0.405,-0.992,-4.761,5.981,6.226
0.204,0.413,-0.990,4.211,1.892,5.188
0.194,0.431,-0.982,7.263,0.366,2.747
0.738,-0.026,0.130,-15.076,250.977,60.181
0.740,-0.029,0.054,-5.249,223.755,60.730
0.786,0.005,0.016,-1.953,206.482,60.974
0.817,0.030,0.030,-4.883,192.871,61.768
0.835,0.079,0.014,-10.315,197.998,63.110
0.814,0.095,-0.031,-18.005,206.482,64.453
0.754,0.092,-0.158,-31.738,217.163,64.758
0.736,0.082,-0.221,-32.104,216.492,63.843
0.728,0.076,-0.270,-20.813,209.229,63.599
0.718,0.098,-0.323,-12.695,206.360,64.880
0.697,0.131,-0.336,-0.366,206.665,63.904
0.646,0.185,-0.376,2.441,208.191,60.364
0.631,0.192,-0.401,5.920,208.923,54.443
0.609,0.185,-0.453,8.667,209.900,54.504
0.594,0.185,-0.476,14.465,215.210,58.228
0.551,0.201,-0.507,14.709,218.140,60.181
0.530,0.207,-0.521,9.766,223.022,65.674
0.477,0.205,-0.571,7.568,226.379,69.702
0.444,0.198,-0.605,7.324,229.980,74.219
0.403,0.199,-0.639,13.855,233.887,82.581
0.308,0.228,-0.704,17.517,233.826,84.412
0.260,0.237,-0.743,18.433,228.699,86.243
0.167,0.247,-0.820,17.273,222.656,88.989
0.116,0.261,-0.853,14.404,205.078,95.886
0.010,0.306,-0.909,11.230,192.810,97.656
-0.033,0.321,-0.936,2.319,157.776,97.717
-0.083,0.348,-0.956,-1.465,137.207,96.924
-0.087,0.356,-0.944,-6.714,104.370,94.177
-0.090,0.367,-0.910,-7.751,97.107,93.506
-0.109,0.382,-0.908,-10.193,100.342,91.614
0.716,0.018,-0.195,-22.522,232.971,52.124
0.704,0.044,-0.274,-20.325,229.065,52.979
0.689,0.056,-0.315,-10.681,228.149,49.377
0.650,0.065,-0.396,-2.258,230.041,45.471
0.636,0.067,-0.428,17.944,235.168,40.771
0.613,0.086,-0.483,24.658,236.572,42.236
0.591,0.108,-0.505,24.231,233.765,49.500
0.537,0.123,-0.582,17.944,231.934,53.101
0.502,0.113,-0.646,10.315,227.356,61.890
0.418,0.125,-0.740,13.855,223.511,65.491
0.385,0.144,-0.762,28.137,214.722,66.528
0.332,0.195,-0.797,34.180,209.595,66.345
0.304,0.217,-0.812,35.828,197.388,65.735
0.258,0.229,-0.854,29.663,189.575,67.322
0.231,0.235,-0.884,20.142,180.298,72.266
0.194,0.246,-0.912,3.296,160.950,84.961
0.119,0.284,-0.948,0.305,152.466,87.402
0.088,0.304,-0.954,1.099,135.559,83.740
0.041,0.334,-0.958,1.587,126.221,79.956
0.021,0.348,-0.959,2.014,110.718,70.740
-0.007,0.365,-0.961,2.380,105.774,66.284
-0.017,0.364,-0.974,1.770,100.525,61.279
-0.055,0.369,-1.032,0.488,98.816,60.364
-0.080,0.375,-1.056,-2.075,88.440,56.763
-0.106,0.388,-1.063,-2.808,79.651,53.589
-0.104,0.393,-1.055,-3.906,63.110,46.509
-0.089,0.394,-1.035,-4.456,58.777,43.823
-0.089,0.391,-1.035,-6.348,57.434,40.527
-0.115,0.389,-1.059,-8.240,57.251,39.978
-0.136,0.388,-1.078,-9.949,55.237,39.368
-0.034,0.413,-1.102,-14.648,43.030,34.302
-0.018,0.414,-1.075,-12.390,32.959,29.114
-0.009,0.412,-1.058,-12.939,28.748,27.405
-0.008,0.411,-1.050,-14.709,26.978,25.574
-0.021,0.403,-1.056,-14.893,27.344,24.780
-0.030,0.397,-1.066,-14.343,24.780,23.315
-0.040,0.384,-1.074,-12.756,22.034,21.729
-0.036,0.378,-1.068,-7.141,16.357,17.700
-0.030,0.374,-1.044,-5.493,13.977,16.479
-0.028,0.373,-1.035,-5.676,11.902,15.320
-0.024,0.362,-1.036,-6.653,12.390,15.381
-0.033,0.355,-1.045,-7.629,14.099,16.235
-0.067,0.354,-1.062,-5.981,13.794,15.686
-0.079,0.355,-1.063,0.061,10.803,11.536
-0.088,0.361,-1.061,2.808,8.423,8.789
-0.086,0.365,-1.052,4.578,1.465,3.784
-0.067,0.368,-1.017,3.296,-2.258,2.136
-0.055,0.368,-0.996,-0.061,-6.104,0.977
-0.042,0.367,-0.977,-1.282,-5.310,0.793
-0.042,0.362,-0.983,-1.770,-3.784,0.305
-0.040,0.348,-0.994,-0.122,-4.517,-0.793
-0.033,0.343,-0.989,4.822,-6.958,-2.686
-0.019,0.345,-0.973,6.165,-7.141,-2.441
-0.018,0.350,-0.970,4.517,-5.493,-0.122
-0.029,0.351,-0.976,2.747,-4.333,0.916
-0.040,0.351,-0.984,2.014,-3.784,0.793
-0.045,0.355,-0.987,3.052,-5.249,-0.671
-0.040,0.355,-0.982,3.601,-9.155,-4.150
-0.026,0.345,-0.982,2.930,-10.498,-5.615
-0.017,0.339,-0.987,0.977,-13.428,-6.836
0.614,0.214,-0.574,18.921,168.701,63.477
0.589,0.224,-0.609,34.180,166.687,62.500
0.532,0.250,-0.678,41.992,164.917,62.073
0.513,0.259,-0.697,53.589,155.579,63.171
0.494,0.292,-0.695,57.129,149.170,64.392
0.483,0.318,-0.689,56.885,136.353,66.772
0.447,0.372,-0.699,53.162,130.310,68.970
0.420,0.399,-0.706,49.500,125.488,71.594
0.364,0.459,-0.710,45.593,121.704,74.402
0.342,0.488,-0.711,41.809,120.117,74.219
0.326,0.511,-0.717,18.799,109.497,73.792
0.297,0.521,-0.750,1.953,101.013,74.646
0.277,0.513,-0.784,-23.682,86.853,76.111
0.233,0.494,-0.874,-28.748,82.031,74.463
0.216,0.491,-0.902,-30.396,71.594,66.223
0.206,0.488,-0.919,-27.466,66.345,61.646
0.206,0.500,-0.919,-20.996,58.899,57.922
0.188,0.530,-0.935,-20.813,57.800,57.190
0.173,0.540,-0.954,-23.437,56.396,55.481
0.138,0.554,-0.988,-23.315,54.016,53.894
0.123,0.561,-0.998,-18.921,46.631,47.180
0.105,0.578,-0.998,-15.930,42.542,42.603
0.101,0.584,-0.991,-13.916,32.532,33.325
0.115,0.589,-0.969,-15.808,26.489,29.663
0.125,0.587,-0.958,-22.034,18.005,24.109
0.127,0.566,-0.952,-24.536,16.479,21.912
0.119,0.548,-0.963,-26.306,15.503,20.081
0.107,0.531,-0.976,-24.658,11.658,17.029
0.100,0.517,-0.984,-20.996,9.521,14.893
0.107,0.517,-0.979,-13.611,8.362,10.803
0.672,-0.110,0.553,30.212,249.817,49.377
0.665,-0.117,0.481,22.461,246.399,54.871
0.686,-0.111,0.360,22.217,239.624,56.091
0.715,-0.096,0.326,22.461,226.562,58.472
0.757,-0.055,0.278,20.264,223.450,60.913
0.757,-0.036,0.247,17.151,223.877,62.988
0.746,-0.023,0.150,12.207,230.591,61.218
0.742,-0.023,0.088,11.169,231.873,59.875
0.735,-0.009,-0.030,11.780,225.708,61.340
0.733,0.001,-0.081,13.733,220.154,62.683
0.731,0.016,-0.124,20.508,206.238,65.552
0.730,0.048,-0.181,25.330,201.050,66.895
0.735,0.062,-0.203,35.156,200.500,69.519
0.736,0.092,-0.257,37.354,203.003,72.083
0.726,0.106,-0.295,33.875,205.688,80.933
0.684,0.131,-0.388,31.372,204.041,86.243
0.654,0.143,-0.437,33.142,194.763,93.994
0.605,0.180,-0.501,36.743,187.195,96.313
0.581,0.209,-0.508,42.236,170.837,98.816
0.544,0.259,-0.526,43.335,164.673,98.328
0.535,0.276,-0.555,41.016,153.564,98.755
0.511,0.327,-0.621,37.659,148.010,100.708
0.490,0.360,-0.646,34.668,143.127,102.783
0.445,0.428,-0.676,30.762,132.996,104.187
0.419,0.467,-0.672,28.137,127.014,102.417
0.394,0.500,-0.667,17.944,114.441,95.886
0.350,0.556,-0.669,8.728,106.873,93.201
0.341,0.575,-0.688,-13.794,94.055,88.013
0.345,0.599,-0.802,-25.452,90.576,85.815
0.321,0.600,-0.875,-41.992,84.473,80.261
0.658,-0.082,0.670,17.639,224.365,31.250
0.687,-0.079,0.586,13.733,231.934,33.936
0.683,-0.092,0.459,11.902,243.896,40.466
0.689,-0.090,0.404,13.916,244.629,44.434
0.709,-0.060,0.314,19.714,240.479,51.147
0.713,-0.047,0.272,22.339,238.647,52.368
0.718,-0.039,0.232,26.123,234.619,51.331
0.727,-0.013,0.138,25.940,231.140,51.392
0.732,0.005,0.090,14.160,216.614,52.429
0.747,0.018,-0.009,4.517,206.726,52.795
0.752,0.008,-0.066,-7.690,189.636,54.443
0.754,-0.006,-0.169,-5.127,184.326,55.237
0.754,0.004,-0.203,12.939,182.617,54.382
0.758,0.044,-0.233,22.644,185.303,53.955
0.763,0.064,-0.235,31.982,192.505,57.556
0.761,0.102,-0.249,31.006,197.021,62.195
0.736,0.121,-0.281,28.442,202.942,67.627
0.664,0.143,-0.395,24.536,212.402,76.111
0.637,0.148,-0.453,24.170,211.792,79.285
0.616,0.158,-0.497,26.062,201.233,85.327
0.584,0.191,-0.556,27.893,194.458,87.097
0.566,0.208,-0.583,33.813,184.509,88.806
0.524,0.234,-0.640,37.415,180.237,89.355
0.506,0.251,-0.658,44.678,167.541,91.980
0.472,0.304,-0.669,46.265,159.729,93.445
0.457,0.340,-0.668,40.955,144.775,97.229
0.426,0.408,-0.688,36.377,140.869,98.816
0.405,0.437,-0.717,26.489,138.428,100.769
0.350,0.498,-0.812,18.738,135.925,101.318
0.315,0.523,-0.862,-2.014,120.361,97.595
0.537,0.145,-0.595,-24.109,178.040,83.130
0.510,0.166,-0.616,-12.939,176.575,80.139
0.465,0.213,-0.670,-8.728,174.377,78.796
0.444,0.231,-0.705,-6.714,164.062,77.271
0.427,0.257,-0.747,-7.507,158.386,76.538
0.416,0.271,-0.759,-12.085,153.809,75.500
0.359,0.307,-0.819,-16.357,152.161,74.768
0.323,0.315,-0.867,-26.245,139.160,71.594
0.284,0.311,-0.944,-28.931,129.761,69.458
0.281,0.305,-0.964,-28.381,122.314,66.895
0.263,0.328,-0.963,-22.888,118.408,63.721
0.247,0.345,-0.953,-21.851,118.469,62.195
0.237,0.360,-0.941,-30.212,114.319,61.279
0.206,0.368,-0.953,-39.246,111.938,61.951
0.178,0.349,-1.016,-52.917,106.567,62.561
0.111,0.320,-1.170,-52.429,100.037,60.364
0.088,0.327,-1.203,-42.542,77.942,49.744
0.082,0.347,-1.160,-38.940,66.589,43.213
0.085,0.348,-1.136,-37.720,51.270,31.921
0.091,0.327,-1.129,-37.537,46.875,28.809
0.096,0.313,-1.135,-34.546,42.786,25.818
0.075,0.285,-1.184,-31.128,42.603,24.353
0.062,0.281,-1.209,-20.081,36.621,20.081
0.063,0.288,-1.210,-15.686,29.785,17.090
0.074,0.290,-1.183,-12.390,16.235,11.963
0.088,0.292,-1.128,-12.756,12.573,10.803
0.085,0.293,-1.115,-14.587,9.155,9.277
0.065,0.291,-1.123,-13.855,7.446,7.507
0.062,0.290,-1.122,-7.935,2.502,2.380
0.077,0.294,-1.094,-5.127,-0.183,-0.366
0.120,0.340,-0.877,-36.804,94.299,91.309
0.114,0.330,-0.879,-46.570,84.351,85.632
0.087,0.311,-0.923,-47.852,86.060,84.778
0.051,0.316,-0.968,-45.410,94.238,83.923
-0.029,0.349,-1.058,-42.358,95.276,80.139
-0.055,0.360,-1.095,-40.283,84.351,68.970
-0.069,0.367,-1.132,-41.870,75.562,64.331
-0.069,0.363,-1.144,-44.373,64.819,56.152
-0.067,0.354,-1.163,-44.067,64.453,52.368
-0.070,0.352,-1.171,-40.894,60.913,47.729
-0.098,0.354,-1.178,-39.551,55.847,45.837
-0.108,0.351,-1.181,-36.865,42.236,37.659
-0.099,0.347,-1.159,-34.607,35.828,32.349
-0.088,0.345,-1.143,-29.907,28.076,22.949
-0.066,0.325,-1.125,-29.297,25.513,20.874
-0.065,0.316,-1.126,-27.039,24.048,21.301
-0.085,0.312,-1.137,-23.437,24.658,20.508
-0.095,0.312,-1.138,-19.287,24.170,18.433
-0.092,0.310,-1.130,-14.404,16.785,13.306
-0.082,0.304,-1.125,-13.489,11.902,10.620
-0.064,0.288,-1.104,-12.390,4.150,5.981
-0.057,0.281,-1.090,-10.925,1.709,4.211
-0.045,0.266,-1.061,-6.653,-0.183,1.343
-0.044,0.260,-1.048,-4.822,0.000,0.732
-0.045,0.254,-1.042,-0.854,2.075,0.549
-0.047,0.251,-1.042,0.610,2.197,0.671
-0.043,0.245,-1.038,0.793,-1.953,0.305
-0.031,0.227,-1.021,0.732,-3.967,0.366
-0.030,0.223,-1.015,3.479,-3.662,0.671
-0.039,0.224,-1.006,5.310,-2.747,0.549
0.243,0.325,-0.955,-23.437,75.256,41.931
0.224,0.324,-0.956,-26.733,69.763,39.978
0.217,0.317,-0.970,-29.846,61.462,36.133
0.204,0.300,-1.005,-28.564,59.570,34.241
0.194,0.299,-1.013,-26.306,57.983,31.921
0.163,0.311,-1.022,-28.015,55.786,31.128
0.146,0.313,-1.033,-34.424,46.143,28.320
0.127,0.308,-1.045,-36.255,40.649,26.062
0.124,0.302,-1.045,-36.621,34.424,21.179
0.118,0.287,-1.039,-37.109,32.532,19.592
0.121,0.276,-1.035,-38.208,29.236,17.761
0.133,0.252,-1.037,-37.415,28.931,17.639
0.130,0.245,-1.051,-32.715,31.006,16.968
0.109,0.240,-1.069,-30.518,30.212,15.869
0.105,0.235,-1.063,-28.931,23.865,13.428
0.115,0.218,-1.055,-28.931,20.874,13.123
0.117,0.209,-1.063,-26.489,19.836,13.367
0.108,0.198,-1.084,-23.193,20.203,13.062
0.103,0.200,-1.076,-17.334,19.653,11.353
0.100,0.201,-1.054,-16.052,20.081,10.620
0.097,0.199,-1.055,-15.198,20.020,10.376
0.097,0.193,-1.055,-14.221,16.113,10.925
0.098,0.189,-1.056,-13.916,14.343,11.353
0.095,0.189,-1.060,-11.780,13.672,11.475
0.072,0.199,-1.061,-9.949,13.245,10.254
0.061,0.203,-1.058,-7.263,9.827,6.042
0.056,0.201,-1.050,-6.836,7.385,3.967
0.062,0.198,-1.051,-6.714,4.150,1.343
0.068,0.189,-1.066,-6.165,3.784,0.244
0.068,0.183,-1.070,-3.357,2.502,-1.465
0.505,0.175,-0.653,14.893,187.805,73.364
0.487,0.216,-0.707,17.090,180.054,71.594
0.479,0.241,-0.729,12.207,167.114,73.303
0.436,0.280,-0.793,8.362,161.194,74.707
0.411,0.295,-0.824,5.005,147.339,75.500
0.370,0.339,-0.852,4.150,139.160,74.768
0.353,0.365,-0.852,-2.808,122.131,71.655
0.322,0.402,-0.845,-10.132,113.525,70.007
0.317,0.407,-0.845,-27.954,97.351,67.383
0.312,0.408,-0.857,-34.851,93.262,65.125
0.302,0.397,-0.869,-38.940,93.018,61.340
0.277,0.387,-0.901,-45.349,97.778,60.852
0.255,0.386,-0.927,-49.438,96.802,62.622
0.206,0.373,-0.977,-57.007,84.839,61.035
0.192,0.361,-0.985,-58.655,77.148,58.167
0.185,0.352,-0.983,-58.716,65.735,53.772
0.168,0.347,-0.970,-58.228,63.477,52.185
0.154,0.345,-0.966,-57.251,63.477,48.279
0.119,0.330,-0.976,-57.190,63.721,47.058
0.099,0.322,-0.993,-57.434,62.134,44.250
0.068,0.301,-1.033,-57.556,59.753,42.480
0.050,0.292,-1.050,-56.763,54.321,38.635
0.017,0.276,-1.077,-54.687,51.331,35.583
0.016,0.269,-1.080,-50.415,43.884,30.029
0.027,0.255,-1.069,-50.110,40.771,28.442
0.026,0.245,-1.068,-50.415,37.537,26.978
0.022,0.212,-1.072,-48.889,36.438,26.367
0.023,0.200,-1.073,-46.204,35.400,26.062
0.010,0.197,-1.077,-39.673,35.522,25.940
0.006,0.195,-1.074,-36.560,35.767,25.208