aX,aY,aZ,gX,gY,gZ
-0.585,-0.317,0.826,-45.288,353.455,55.359
-0.427,-0.324,0.828,-67.200,349.792,39.551
-0.339,-0.327,0.857,-111.816,328.735,15.503
-0.214,-0.379,0.893,-119.019,321.167,3.784
-0.146,-0.399,0.895,-107.117,326.904,-8.301
0.028,-0.330,0.949,-97.534,339.050,-7.568
0.090,-0.260,0.971,-89.050,371.582,-7.812
0.206,-0.168,0.894,-91.309,384.766,-14.038
0.292,-0.169,0.816,-102.173,382.996,-22.522
0.428,-0.191,0.677,-105.530,367.920,-17.212
0.478,-0.178,0.633,-94.971,331.421,-0.916
0.589,-0.104,0.574,-83.679,315.796,3.967
0.660,-0.039,0.546,-75.256,288.452,13.000
0.752,0.102,0.469,-79.102,271.667,14.282
0.786,0.159,0.433,-83.679,228.516,0.244
0.829,0.196,0.231,-74.646,201.172,-13.550
0.887,0.169,0.124,-29.785,119.751,-37.598
1.067,0.104,0.126,-9.583,70.129,-37.170
1.100,0.109,0.145,20.813,-27.710,-17.456
1.084,0.102,0.209,39.673,-75.073,-10.986
1.088,0.054,0.281,77.271,-166.077,1.892
0.910,0.011,0.337,96.252,-214.905,10.620
0.722,0.022,0.370,138.123,-331.360,6.836
0.298,-0.004,0.519,152.588,-393.799,-4.883
0.094,-0.057,0.630,158.813,-456.055,-18.616
-0.155,-0.223,0.932,155.884,-562.073,-42.603
-0.195,-0.277,1.094,152.405,-589.355,-48.340
-0.230,-0.282,1.207,135.071,-584.900,-54.382
-0.321,-0.291,1.269,122.437,-568.481,-63.416
-0.338,-0.335,1.279,88.623,-519.043,-77.942
0.208,-0.274,0.697,-47.363,362.732,34.302
0.315,-0.191,0.727,-15.930,330.688,-1.465
0.529,-0.072,0.791,-18.860,317.200,-14.648
0.554,-0.038,0.737,-46.509,278.381,-30.457
0.586,-0.087,0.435,-52.795,245.361,-37.415
0.654,-0.138,0.330,-29.358,138.367,-35.217
0.836,-0.131,0.515,-12.146,82.947,-22.827
0.891,-0.080,0.677,7.812,24.414,3.418
0.889,0.009,0.802,10.071,15.137,7.996
0.861,0.005,0.781,11.230,-5.676,3.601
0.818,-0.059,0.741,16.479,-24.963,3.296
0.803,-0.075,0.782,33.569,-71.106,12.695
0.754,-0.081,0.865,37.720,-91.797,18.616
0.696,-0.079,0.829,37.598,-138.977,25.330
0.509,-0.086,0.705,39.246,-170.532,23.682
0.379,-0.100,0.634,45.532,-208.923,18.555
0.228,-0.119,0.577,65.308,-313.232,1.404
-0.043,-0.210,0.591,70.984,-376.587,-5.859
-0.140,-0.274,0.680,81.848,-495.666,-11.475
-0.324,-0.369,0.893,97.778,-530.396,-15.808
-0.391,-0.365,1.007,129.944,-525.269,-45.532
-0.386,-0.383,1.173,134.094,-495.544,-65.247
-0.354,-0.380,1.231,111.572,-426.086,-76.782
-0.334,-0.336,1.333,92.285,-378.784,-77.026
-0.330,-0.401,1.278,50.415,-253.113,-70.862
-0.451,-0.496,1.103,29.663,-194.946,-47.974
-0.584,-0.469,1.042,17.517,-77.454,10.498
-0.746,-0.349,0.982,23.865,-17.883,35.095
-0.731,-0.252,1.055,3.845,76.843,85.571
-0.667,-0.140,1.165,-29.053,123.474,105.408
-0.385,-0.347,0.948,198.364,-546.082,-46.997
-0.474,-0.340,1.081,184.021,-584.900,-61.890
-0.509,-0.368,1.334,169.617,-576.477,-76.782
-0.451,-0.400,1.474,120.117,-511.536,-79.956
-0.348,-0.399,1.724,93.323,-446.655,-68.298
-0.328,-0.441,1.717,48.828,-249.756,-40.161
-0.477,-0.496,1.389,33.813,-146.851,-13.916
-0.624,-0.464,1.166,29.480,11.108,40.649
-0.806,-0.352,0.772,32.471,59.387,56.519
-0.806,-0.294,0.679,26.306,95.093,64.575
-0.643,-0.229,0.780,14.160,100.342,62.195
-0.528,-0.229,0.879,-30.762,132.935,68.420
-0.464,-0.191,0.917,-55.664,166.748,73.120
-0.496,-0.228,0.838,-86.243,255.737,55.115
-0.402,-0.371,0.728,-99.487,289.246,52.795
-0.309,-0.398,0.783,-142.090,323.914,86.548
-0.237,-0.353,0.961,-163.330,348.755,99.670
-0.240,-0.388,0.918,-178.650,423.462,80.811
-0.159,-0.532,0.609,-173.523,440.796,70.374
-0.056,-0.515,0.541,-159.302,430.969,67.017
0.193,-0.349,0.605,-115.417,371.094,57.312
0.320,-0.251,0.605,-92.896,339.539,45.532
0.511,-0.077,0.515,-54.260,271.301,17.212
0.601,-0.021,0.525,-40.344,234.253,1.831
0.670,0.006,0.541,-23.560,159.424,-19.592
0.731,0.004,0.531,-13.855,117.676,-24.597
0.750,0.012,0.568,7.019,33.447,-26.733
0.757,0.064,0.704,14.587,-0.488,-26.489
0.742,0.075,0.772,21.057,-41.626,-29.663
0.742,0.053,0.909,19.836,-49.988,-29.602
0.853,0.180,0.166,-13.733,107.849,-44.006
1.020,0.118,0.217,-5.127,58.655,-37.842
1.054,0.107,0.221,27.344,-41.687,-20.386
1.042,0.048,0.404,46.997,-87.463,-18.555
1.069,0.026,0.548,48.218,-145.325,8.606
1.008,0.066,0.673,36.987,-169.739,27.649
0.907,0.088,0.657,24.597,-231.079,46.936
0.614,0.091,0.555,31.616,-268.066,44.922
0.440,0.079,0.516,72.876,-355.225,21.057
0.097,-0.013,0.624,99.365,-400.024,1.526
-0.034,-0.096,0.718,138.855,-463.318,-31.616
-0.253,-0.282,0.810,149.048,-492.554,-37.720
-0.354,-0.309,0.920,148.193,-551.575,-38.025
-0.480,-0.315,1.221,144.958,-559.509,-46.326
-0.474,-0.351,1.328,133.911,-509.216,-74.585
-0.383,-0.428,1.465,115.723,-463.867,-77.759
-0.342,-0.453,1.511,63.904,-355.041,-54.565
-0.348,-0.468,1.478,38.818,-284.302,-32.898
-0.409,-0.456,1.354,13.794,-117.310,14.832
-0.646,-0.414,0.974,15.137,-42.114,36.499
-0.756,-0.375,0.794,28.503,55.969,70.862
-0.792,-0.242,0.675,33.813,78.308,81.421
-0.722,-0.186,0.756,24.170,106.018,90.759
-0.556,-0.162,0.941,6.653,127.441,94.910
-0.514,-0.171,0.989,-45.105,196.045,101.318
-0.538,-0.197,0.990,-71.777,240.540,99.182
-0.533,-0.238,0.964,-108.826,330.078,80.872
-0.403,-0.289,0.975,-131.531,365.662,76.660
-0.342,-0.283,1.042,-191.223,431.335,65.735
-0.281,-0.373,1.094,-222.595,469.543,52.368
0.926,0.008,0.223,-34.485,47.119,-32.227
0.955,0.017,0.245,-20.935,-2.869,-20.752
0.960,0.022,0.367,16.235,-90.088,-3.723
1.005,-0.016,0.525,42.114,-157.898,15.930
1.013,-0.007,0.805,42.603,-178.711,35.156
0.921,0.048,0.833,37.720,-195.374,52.612
0.654,0.101,0.698,29.724,-242.676,62.012
0.495,0.086,0.615,33.142,-283.142,56.824
0.319,0.038,0.579,68.420,-389.404,34.668
-0.023,-0.144,0.662,104.858,-437.317,18.311
-0.174,-0.230,0.759,184.937,-498.901,-16.846
-0.412,-0.305,0.927,202.332,-520.630,-29.358
-0.489,-0.303,1.037,176.270,-558.899,-48.462
-0.449,-0.321,1.329,150.085,-556.763,-58.594
-0.364,-0.342,1.456,101.746,-479.675,-59.509
-0.224,-0.341,1.601,81.421,-403.381,-48.706
-0.240,-0.377,1.543,49.438,-216.064,-24.902
-0.445,-0.471,1.184,31.311,-134.338,-5.310
-0.571,-0.474,0.966,8.728,-36.255,34.302
-0.733,-0.381,0.719,6.897,-13.977,44.739
-0.737,-0.308,0.696,10.132,15.442,44.312
-0.664,-0.223,0.776,11.108,31.067,39.795
-0.609,-0.221,0.850,-0.305,76.538,43.274
-0.507,-0.239,0.931,-13.916,109.680,53.528
-0.465,-0.239,0.944,-47.058,193.604,71.228
-0.417,-0.232,1.061,-66.406,239.807,74.402
-0.401,-0.246,1.143,-122.192,345.764,81.909
-0.374,-0.384,1.196,-156.250,403.076,90.149
-0.409,-0.462,1.193,-202.881,511.536,98.206
-0.501,-0.539,1.052,-204.773,558.289,85.022
-0.316,-0.325,1.099,167.725,-629.822,-13.611
-0.462,-0.326,1.280,157.166,-615.662,-26.733
-0.477,-0.344,1.345,133.484,-546.265,-56.885
-0.398,-0.404,1.490,114.014,-497.620,-61.768
-0.351,-0.423,1.564,60.242,-374.573,-42.358
-0.366,-0.463,1.540,34.851,-294.678,-24.414
-0.452,-0.464,1.422,10.681,-119.324,20.630
-0.700,-0.412,1.037,13.733,-43.701,41.626
-0.786,-0.357,0.865,20.081,12.573,58.594
-0.781,-0.231,0.773,25.757,68.604,74.890
-0.716,-0.192,0.835,21.729,82.520,76.660
-0.643,-0.175,0.900,-1.282,122.070,78.918
-0.521,-0.181,0.968,-20.020,151.306,78.735
-0.489,-0.187,0.995,-72.266,221.619,74.646
-0.436,-0.262,1.001,-96.863,261.475,69.275
-0.396,-0.333,0.964,-135.864,332.703,68.359
-0.311,-0.424,0.996,-149.841,360.718,72.510
-0.255,-0.452,1.070,-166.931,425.110,73.669
-0.194,-0.454,1.181,-174.988,463.440,68.909
-0.173,-0.453,1.139,-179.199,525.146,37.476
-0.037,-0.463,0.696,-173.584,522.522,22.888
0.099,-0.421,0.443,-139.893,416.992,17.700
0.416,-0.189,0.358,-113.586,343.750,16.785
0.531,-0.073,0.471,-78.796,256.653,2.686
0.629,0.073,0.526,-77.209,243.164,-6.958
0.643,0.090,0.444,-78.430,206.909,-28.687
0.670,0.048,0.214,-70.801,169.556,-35.522
0.709,0.017,0.161,-55.664,120.239,-36.804
0.821,0.023,0.318,-20.630,13.245,-23.071
0.840,0.054,0.438,-8.728,-27.649,-14.954
0.245,-0.110,0.683,-111.633,418.884,-78.064
0.455,-0.058,0.552,-109.863,400.207,-85.205
0.525,-0.048,0.390,-92.102,335.693,-94.177
0.738,-0.021,0.102,-68.115,283.875,-96.130
0.851,0.009,0.091,-23.804,172.241,-86.853
1.005,0.052,0.192,-13.245,125.549,-77.393
1.055,0.040,0.226,-10.254,47.424,-52.795
1.094,-0.022,0.157,-8.301,5.676,-36.316
1.094,-0.048,0.154,13.977,-98.083,2.502
1.095,-0.059,0.323,31.311,-146.545,23.010
1.010,-0.022,0.359,47.974,-186.340,42.297
0.674,0.027,0.346,82.825,-269.409,54.749
0.483,-0.009,0.363,100.891,-323.975,47.729
0.294,-0.077,0.400,130.737,-457.153,38.025
-0.119,-0.193,0.584,141.602,-527.832,39.490
-0.335,-0.239,0.715,169.678,-639.954,30.273
-0.601,-0.262,1.072,184.326,-666.077,14.099
-0.623,-0.211,1.324,178.955,-632.690,-42.053
-0.410,-0.169,1.682,152.527,-575.928,-72.144
-0.271,-0.204,1.735,72.937,-445.068,-82.825
-0.219,-0.301,1.713,35.400,-372.559,-63.843
-0.303,-0.392,1.586,-8.118,-189.270,-21.484
-0.536,-0.546,1.145,-10.437,-102.295,-0.916
-0.635,-0.543,0.965,7.812,13.062,41.687
-0.683,-0.386,0.851,17.944,48.157,59.021
-0.655,-0.290,0.913,18.127,104.004,84.412
-0.604,-0.177,1.054,4.272,137.573,92.651
-0.596,-0.187,1.039,-31.860,220.947,98.816
-0.581,-0.199,0.991,-48.096,261.047,98.022
-0.565,-0.199,1.039,-78.979,341.125,79.773
0.433,-0.038,0.455,101.624,-367.981,49.988
0.080,-0.089,0.602,117.371,-421.326,49.011
-0.078,-0.122,0.709,126.038,-520.386,42.969
-0.306,-0.177,0.950,123.901,-555.481,39.429
-0.399,-0.170,1.056,108.093,-583.740,28.015
-0.544,-0.135,1.243,97.290,-576.721,12.573
-0.565,-0.167,1.327,70.374,-517.212,-31.189
-0.512,-0.281,1.394,54.565,-470.581,-40.283
-0.499,-0.307,1.378,20.691,-365.112,-26.367
-0.517,-0.324,1.240,6.287,-305.237,-14.771
-0.556,-0.340,1.116,-3.357,-175.781,5.005
-0.693,-0.352,0.824,4.944,-114.685,17.822
-0.761,-0.290,0.730,40.710,-13.367,48.340
-0.830,-0.130,0.654,59.814,27.710,57.373
-0.818,-0.087,0.647,78.064,87.524,60.181
-0.636,-0.101,0.781,69.824,106.445,63.965
-0.519,-0.134,0.930,14.587,154.114,98.938
-0.397,-0.184,1.193,-21.545,200.684,124.878
-0.433,-0.136,1.320,-78.491,357.361,135.437
-0.573,-0.147,1.441,-92.407,460.266,104.370
-0.624,-0.272,1.375,-102.051,559.753,61.829
-0.671,-0.551,1.036,-153.625,664.612,4.578
-0.602,-0.633,0.770,-183.960,656.372,-7.690
-0.210,-0.614,0.304,-192.688,538.269,-15.564
0.037,-0.473,0.268,-171.326,451.233,-9.155
0.381,-0.126,0.496,-93.872,319.519,-17.883
0.478,-0.063,0.557,-53.406,295.532,-41.077
0.539,-0.041,0.526,-30.518,271.057,-64.392
0.579,-0.049,0.312,-34.607,238.037,-63.171
0.600,-0.066,0.236,-22.949,123.169,-54.993
0.600,-0.108,-0.077,-87.830,244.263,-138.000
0.856,-0.114,0.019,-44.495,104.065,-107.361
0.928,-0.102,0.105,-20.142,-3.784,-59.753
0.979,-0.104,0.236,-8.240,-49.316,-39.490
1.023,-0.129,0.355,24.658,-132.446,-1.953
1.016,-0.115,0.564,41.077,-163.879,19.409
0.897,-0.081,0.540,69.458,-236.328,53.345
0.558,-0.062,0.455,80.627,-296.509,65.247
0.373,-0.081,0.513,106.140,-439.026,83.801
0.041,-0.194,0.753,127.441,-494.141,89.294
-0.114,-0.245,0.872,180.542,-547.852,88.806
-0.378,-0.257,1.041,197.083,-558.289,82.214
-0.483,-0.202,1.125,190.002,-571.411,49.805
-0.566,-0.142,1.340,169.495,-562.988,21.484
-0.512,-0.180,1.422,139.832,-535.339,-6.226
-0.369,-0.276,1.544,77.881,-441.223,-28.564
-0.330,-0.292,1.575,56.030,-374.329,-21.790
-0.395,-0.368,1.398,30.701,-202.759,-2.075
-0.500,-0.405,1.219,21.240,-119.751,11.353
-0.712,-0.409,0.913,13.489,-6.287,37.048
-0.751,-0.360,0.839,14.587,26.550,44.128
-0.734,-0.296,0.818,14.221,70.618,44.495
-0.550,-0.230,0.918,3.967,87.219,45.288
-0.451,-0.233,1.012,-49.622,125.122,71.106
-0.422,-0.266,1.132,-78.918,163.757,84.106
-0.416,-0.281,1.180,-118.896,288.696,87.646
-0.385,-0.228,1.438,-134.644,364.868,80.444
-0.440,-0.210,1.516,-178.223,535.278,41.382
-0.631,-0.339,1.293,-205.933,604.553,10.925
-0.645,-0.478,1.010,-251.099,626.343,-38.513
1.093,0.027,0.430,-14.954,-123.718,-7.324
1.112,0.033,0.547,17.578,-158.447,19.653
0.971,0.051,0.526,31.067,-173.462,31.494
0.817,0.044,0.436,58.167,-258.179,49.683
0.410,-0.004,0.354,77.209,-331.787,56.763
0.193,-0.022,0.453,129.578,-480.713,53.589
-0.135,-0.083,0.857,156.006,-525.330,39.185
-0.244,-0.109,1.008,175.598,-550.415,1.648
-0.378,-0.144,1.176,165.039,-553.406,-11.841
-0.408,-0.153,1.269,129.700,-541.443,-28.137
-0.391,-0.178,1.475,111.206,-509.644,-37.048
-0.372,-0.225,1.517,70.557,-398.621,-42.908
-0.369,-0.364,1.491,48.279,-331.177,-32.715
-0.399,-0.410,1.419,10.498,-188.171,7.935
-0.565,-0.399,1.151,0.916,-121.765,27.405
-0.655,-0.369,0.979,-0.488,-64.636,40.833
-0.776,-0.289,0.736,10.193,5.188,53.467
-0.790,-0.230,0.694,14.893,19.775,56.396
-0.719,-0.121,0.779,19.470,42.297,55.237
-0.648,-0.099,0.888,16.541,61.340,54.626
-0.552,-0.110,1.061,-15.930,123.291,75.928
-0.531,-0.115,1.101,-42.847,165.955,93.933
-0.534,-0.123,1.160,-93.750,268.799,106.628
-0.510,-0.178,1.312,-115.173,332.642,97.290
-0.525,-0.213,1.354,-157.715,470.520,62.866
-0.612,-0.392,1.168,-172.241,530.823,34.973
-0.586,-0.498,0.948,-189.453,560.242,-11.658
-0.357,-0.435,0.572,-193.359,522.400,-26.855
-0.188,-0.317,0.431,-170.349,395.813,-69.580
0.150,-0.181,0.337,-146.301,327.270,-93.994
-0.250,-0.073,0.804,190.308,-526.855,50.354
-0.505,-0.229,0.960,210.937,-541.565,36.255
-0.608,-0.241,1.048,206.116,-577.332,11.841
-0.619,-0.186,1.347,184.265,-575.867,-4.761
-0.507,-0.209,1.478,134.644,-500.549,-35.889
-0.307,-0.258,1.633,110.840,-432.617,-35.461
-0.292,-0.293,1.610,75.684,-251.831,-16.052
-0.420,-0.371,1.373,59.143,-158.386,1.221
-0.525,-0.382,1.186,34.729,-15.869,37.231
-0.692,-0.364,0.850,31.677,23.621,47.974
-0.711,-0.325,0.766,32.166,61.707,54.687
-0.630,-0.232,0.794,33.997,76.477,51.208
-0.548,-0.224,0.871,20.874,119.873,48.767
-0.412,-0.177,1.065,-6.042,148.071,59.998
-0.401,-0.151,1.157,-73.792,233.032,73.730
-0.458,-0.178,1.253,-100.647,293.579,68.115
-0.489,-0.248,1.229,-120.239,360.352,56.885
-0.516,-0.374,1.099,-145.203,474.426,39.001
-0.487,-0.402,1.019,-153.076,508.911,31.189
-0.378,-0.494,0.725,-166.809,512.878,15.869
-0.296,-0.488,0.513,-162.842,474.121,14.648
-0.178,-0.418,0.358,-107.239,329.651,1.709
0.097,-0.193,0.327,-71.045,247.803,-12.207
0.254,-0.106,0.422,-33.142,121.765,-34.790
0.429,-0.027,0.609,-34.363,82.031,-37.170
0.440,-0.022,0.641,-52.429,19.226,-37.048
0.464,-0.076,0.677,-59.937,-13.550,-35.522
0.474,-0.101,0.693,-55.603,-78.430,-21.484
0.448,-0.066,0.786,-44.678,-106.628,-13.306
0.434,-0.025,0.882,-30.762,-145.691,-3.052
-0.444,-0.142,1.494,161.987,-505.005,-35.706
-0.398,-0.163,1.587,105.041,-436.218,-54.993
-0.376,-0.218,1.588,70.984,-391.785,-57.678
-0.363,-0.451,1.456,3.174,-278.625,-46.570
-0.390,-0.514,1.380,-21.484,-218.018,-25.574
-0.521,-0.495,1.148,-38.208,-92.957,19.165
-0.608,-0.447,1.016,-35.706,-40.833,34.180
-0.668,-0.393,0.911,-32.349,22.827,51.208
-0.691,-0.276,0.864,-34.912,39.001,57.495
-0.688,-0.209,0.909,-44.922,74.219,66.223
-0.687,-0.177,0.939,-48.096,105.225,63.904
-0.652,-0.208,0.910,-55.969,170.776,64.148
-0.542,-0.206,0.959,-66.467,198.791,68.542
-0.477,-0.189,1.058,-94.910,274.414,64.880
-0.382,-0.137,1.357,-108.521,333.130,53.101
-0.404,-0.121,1.451,-145.020,489.563,7.080
-0.595,-0.256,1.229,-171.143,557.495,-24.170
-0.623,-0.417,0.950,-204.346,579.041,-78.857
-0.332,-0.539,0.473,-204.773,522.949,-83.679
-0.153,-0.457,0.392,-180.847,355.774,-76.294
0.146,-0.282,0.341,-156.799,283.264,-74.829
0.284,-0.199,0.366,-127.686,227.478,-72.388
0.420,-0.125,0.356,-69.641,154.236,-68.054
0.447,-0.140,0.300,-43.823,119.507,-65.063
0.476,-0.122,0.303,-3.784,17.395,-45.776
0.505,-0.094,0.441,10.315,-41.077,-34.607
0.558,-0.081,0.632,21.851,-118.042,-15.259
0.572,-0.078,0.848,19.043,-131.409,-3.235
0.524,-0.083,0.864,18.311,-149.841,13.245
0.440,-0.083,0.929,23.682,-162.842,17.517
-0.644,-0.249,0.813,27.161,49.744,48.462
-0.532,-0.163,0.988,17.578,78.003,57.190
-0.500,-0.152,1.051,-2.991,101.379,67.078
-0.507,-0.237,0.976,-49.072,170.532,80.322
-0.493,-0.274,0.949,-62.073,207.031,82.153
-0.449,-0.275,1.029,-84.412,275.085,82.275
-0.342,-0.145,1.520,-107.056,321.716,78.369
-0.389,-0.091,1.710,-177.429,482.910,35.156
-0.637,-0.291,1.404,-212.891,570.312,-5.432
-0.662,-0.476,1.049,-253.723,609.985,-62.988
-0.379,-0.636,0.387,-247.925,547.424,-64.331
-0.123,-0.538,0.259,-194.946,349.670,-36.377
0.230,-0.159,0.397,-159.058,278.015,-29.968
0.297,-0.041,0.410,-83.008,221.008,-54.565
0.379,-0.040,0.203,-48.523,192.200,-67.322
0.430,-0.060,0.141,3.479,77.759,-58.777
0.500,-0.026,0.250,19.958,8.362,-45.288
0.557,-0.013,0.433,32.715,-95.276,-22.156
0.638,-0.018,0.747,27.832,-117.249,-8.728
0.603,-0.030,0.777,19.470,-138.123,13.977
0.479,-0.054,0.731,22.827,-158.264,20.813
0.416,-0.044,0.752,35.522,-227.478,31.189
0.296,-0.006,0.931,44.250,-260.376,31.555
0.256,-0.004,1.047,70.068,-279.907,18.066
0.224,0.015,1.250,77.332,-271.240,10.986
0.226,0.045,1.354,50.903,-242.065,10.742
0.215,0.089,1.437,25.269,-217.712,13.306
0.182,0.063,1.384,-5.554,-151.428,7.202
0.101,-0.030,1.211,-5.005,-120.605,1.709
0.070,-0.048,1.160,1.770,-95.825,-2.197
-0.234,-0.094,0.914,191.895,-471.985,3.418
-0.366,-0.207,1.146,185.669,-497.131,-2.380
-0.462,-0.221,1.342,169.067,-514.160,-10.437
-0.444,-0.190,1.472,154.846,-498.840,-19.470
-0.294,-0.224,1.630,123.657,-403.809,-48.950
-0.227,-0.269,1.618,102.905,-338.623,-50.598
-0.218,-0.295,1.558,51.636,-213.318,-18.127
-0.339,-0.328,1.354,29.785,-150.818,-1.038
-0.419,-0.363,1.193,9.766,-37.354,18.616
-0.531,-0.373,0.935,8.118,-2.930,26.306
-0.535,-0.325,0.909,5.188,30.396,37.109
-0.472,-0.205,1.011,-2.258,43.091,42.236
-0.482,-0.172,1.022,-26.001,86.670,45.410
-0.489,-0.255,0.874,-32.959,114.075,40.771
-0.423,-0.297,0.865,-47.546,150.391,52.063
-0.242,-0.219,1.243,-60.730,173.706,67.261
-0.227,-0.150,1.452,-91.003,303.894,74.646
-0.386,-0.154,1.440,-105.896,395.813,62.012
-0.476,-0.176,1.338,-150.146,517.883,21.057
-0.489,-0.251,1.157,-181.580,533.508,-4.089
-0.432,-0.354,0.972,-224.731,487.244,-38.574
-0.170,-0.470,0.445,-220.886,418.640,-37.720
0.014,-0.361,0.418,-177.612,252.869,-24.902
0.272,-0.095,0.610,-146.606,203.918,-28.076
0.323,-0.055,0.585,-82.581,160.828,-42.358
0.384,-0.051,0.424,-52.368,131.531,-41.321
0.386,-0.027,0.398,-3.906,40.588,-27.039
0.390,0.021,0.520,13.611,-7.263,-23.865
0.443,0.022,0.675,24.719,-74.585,-16.602
0.506,0.040,0.917,14.038,-90.027,-6.897
-0.259,-0.381,1.500,37.659,-240.723,-43.579
-0.319,-0.443,1.367,2.930,-123.047,-20.142
-0.443,-0.484,1.077,-1.892,-76.172,-5.188
-0.476,-0.461,0.961,5.615,-12.878,17.822
-0.482,-0.359,0.900,9.277,5.188,26.123
-0.446,-0.294,0.966,-6.714,36.255,43.701
-0.401,-0.209,1.094,-28.259,59.753,53.040
-0.410,-0.249,1.049,-71.289,127.502,65.002
-0.422,-0.333,0.899,-83.374,158.630,71.655
-0.410,-0.319,0.916,-89.905,216.309,76.782
-0.348,-0.220,1.106,-92.041,252.624,72.632
-0.329,-0.156,1.220,-112.671,348.755,47.852
-0.365,-0.127,1.303,-135.742,401.916,27.283
-0.420,-0.204,1.216,-192.200,468.079,-16.602
-0.464,-0.450,0.775,-206.055,458.374,-30.273
-0.404,-0.496,0.489,-175.659,327.148,-28.442
-0.063,-0.289,0.378,-143.066,233.765,-20.996
0.109,-0.141,0.559,-79.712,122.620,-17.334
0.251,0.020,0.822,-57.556,118.835,-23.193
0.247,0.028,0.813,-42.114,128.845,-32.227
0.226,-0.034,0.644,-20.813,117.187,-42.969
0.239,-0.048,0.587,-9.521,81.482,-37.476
0.288,0.012,0.726,13.733,-11.536,-18.127
0.342,0.025,0.872,22.766,-41.626,-15.564
0.437,0.032,1.100,23.743,-51.270,-12.817
0.427,0.051,1.135,14.648,-42.053,-9.399
0.375,0.037,1.081,-2.747,-22.156,-11.414
0.365,0.014,1.042,-5.432,-18.005,-13.489
0.364,0.006,1.027,-2.808,-22.400,-11.902
0.386,0.011,1.065,-2.136,-24.353,-11.353
0.764,0.088,0.785,29.053,-163.147,25.818
0.696,0.129,0.821,55.298,-185.120,38.330
0.435,0.187,0.683,70.435,-207.764,34.668
0.285,0.191,0.620,94.849,-309.143,20.325
0.007,0.130,0.700,106.262,-372.314,11.108
-0.108,0.048,0.817,141.785,-460.388,-16.785
-0.267,-0.136,1.040,159.729,-477.844,-32.104
-0.335,-0.176,1.111,169.067,-495.789,-51.697
-0.489,-0.098,1.244,156.311,-510.132,-58.228
-0.505,-0.063,1.362,113.403,-500.610,-90.820
-0.265,-0.266,1.500,96.436,-460.449,-101.440
-0.180,-0.313,1.507,76.843,-338.440,-59.753
-0.243,-0.252,1.400,74.402,-261.353,-31.494
-0.311,-0.246,1.268,74.646,-97.961,3.967
-0.417,-0.268,0.958,71.594,-35.217,17.944
-0.461,-0.253,0.856,68.848,25.146,40.283
-0.514,-0.203,0.827,67.627,34.546,45.410
-0.510,-0.199,0.872,49.805,44.800,52.429
-0.428,-0.229,1.041,28.503,55.176,61.523
-0.389,-0.245,1.121,-0.610,75.012,76.660
-0.387,-0.287,1.130,-52.246,147.827,105.164
-0.393,-0.314,1.119,-65.308,192.078,108.643
-0.367,-0.318,1.171,-85.571,267.883,106.934
-0.369,-0.268,1.229,-102.783,296.570,106.384
-0.374,-0.212,1.272,-142.822,359.253,80.383
-0.397,-0.241,1.175,-158.142,390.503,56.396
-0.417,-0.326,1.008,-157.104,410.522,24.353
-0.388,-0.397,0.534,-131.836,377.686,20.081
-0.307,-0.302,0.425,-55.481,231.140,10.010
-0.025,-0.055,0.625,-28.992,157.166,0.244
0.376,0.089,0.647,123.108,-232.727,1.770
0.178,-0.005,0.659,145.630,-272.156,-4.944
0.066,-0.055,0.698,178.406,-351.562,-17.456
-0.112,-0.126,0.866,180.420,-391.113,-22.583
-0.251,-0.172,1.039,159.363,-463.684,-31.677
-0.306,-0.207,1.136,145.813,-491.821,-37.170
-0.333,-0.244,1.318,125.427,-492.432,-54.260
-0.312,-0.297,1.364,121.826,-463.196,-69.458
-0.223,-0.361,1.400,107.361,-380.920,-77.148
-0.212,-0.325,1.434,93.567,-338.257,-65.186
-0.218,-0.307,1.432,60.791,-232.056,-46.448
-0.252,-0.389,1.224,44.556,-177.856,-36.865
-0.302,-0.422,1.107,20.752,-99.365,-8.606
-0.383,-0.437,0.933,15.686,-70.618,3.235
-0.402,-0.407,0.900,11.414,-29.419,24.353
-0.407,-0.295,0.949,7.141,-13.306,34.241
-0.397,-0.255,0.988,-15.076,25.085,52.551
-0.361,-0.305,1.015,-33.875,47.729,64.575
-0.343,-0.341,1.027,-73.547,102.417,102.966
-0.319,-0.307,1.185,-81.970,145.081,115.417
-0.308,-0.277,1.285,-86.243,271.118,113.281
-0.342,-0.219,1.416,-94.360,340.515,105.286
-0.407,-0.209,1.403,-137.207,455.505,70.984
-0.495,-0.312,1.193,-165.161,485.657,46.692
-0.489,-0.407,1.018,-194.885,478.027,12.878
-0.338,-0.513,0.560,-181.091,437.622,11.230
-0.198,-0.445,0.456,-109.253,299.744,19.897
0.075,-0.163,0.669,-75.073,238.708,21.484
0.146,-0.033,0.804,-53.406,203.247,17.700
0.189,0.054,0.823,-45.349,184.998,-11.597
0.817,-0.092,0.207,-9.949,177.673,-46.814
0.995,-0.041,0.338,2.319,127.014,-36.194
1.056,-0.028,0.421,4.272,41.565,-17.395
1.086,-0.042,0.478,0.122,5.676,-7.690
1.070,-0.046,0.481,2.747,-59.143,11.780
1.035,-0.042,0.565,9.705,-88.135,20.386
1.009,-0.042,0.621,19.165,-138.428,41.504
0.853,-0.009,0.608,21.606,-164.429,53.223
0.739,0.018,0.573,28.076,-236.023,66.528
0.476,0.040,0.526,34.058,-280.823,67.078
0.332,0.020,0.523,57.861,-380.310,56.091
0.100,-0.074,0.670,77.454,-425.659,47.363
0.007,-0.109,0.786,101.685,-456.177,36.987
-0.091,-0.141,0.891,147.400,-471.497,5.859
-0.174,-0.189,1.024,157.410,-463.684,-8.789
-0.182,-0.180,1.085,143.616,-433.350,-25.452
-0.181,-0.204,1.183,129.150,-409.180,-31.311
-0.167,-0.237,1.218,99.060,-338.745,-29.175
-0.164,-0.239,1.275,82.397,-293.274,-19.104
-0.198,-0.233,1.276,50.964,-188.904,4.822
-0.307,-0.283,1.145,38.330,-135.559,15.686
-0.372,-0.320,1.042,21.362,-52.124,33.508
-0.457,-0.345,0.914,18.738,-27.527,36.560
-0.449,-0.331,0.938,13.184,-0.122,34.607
-0.420,-0.268,1.061,3.845,15.442,35.339
-0.421,-0.266,1.072,-19.104,68.542,35.461
-0.375,-0.312,1.033,-28.503,98.816,37.537
-0.324,-0.320,1.062,-42.786,158.630,49.683
-0.285,-0.299,1.118,-48.584,196.045,54.687
-0.303,-0.299,1.079,-57.068,271.545,51.025
0.469,-0.126,0.090,-38.208,263.794,-48.218
0.715,0.044,0.200,-11.841,196.960,-50.354
0.812,0.078,0.315,-11.536,85.144,-41.016
0.930,0.026,0.414,-18.616,41.382,-31.006
0.965,-0.003,0.451,-12.451,-36.194,-9.949
0.986,-0.005,0.604,-2.563,-69.336,-1.404
0.985,0.007,0.708,10.010,-116.821,13.611
0.900,0.046,0.827,9.094,-133.545,22.095
0.804,0.062,0.803,5.310,-179.382,31.494
0.570,0.071,0.725,8.423,-213.440,30.457
0.436,0.065,0.694,28.198,-292.725,18.372
0.158,-0.006,0.661,45.288,-335.876,8.850
0.041,-0.063,0.693,94.116,-414.490,-13.062
-0.081,-0.151,0.931,116.028,-435.120,-22.827
-0.098,-0.161,1.041,131.165,-434.814,-34.546
-0.151,-0.122,1.178,121.826,-422.913,-39.551
-0.175,-0.126,1.195,88.379,-376.282,-52.673
-0.207,-0.237,1.119,74.707,-347.046,-56.274
-0.229,-0.299,1.073,60.059,-293.213,-44.556
-0.271,-0.359,1.054,54.871,-264.099,-31.372
-0.300,-0.352,1.073,44.434,-190.247,-6.165
-0.379,-0.341,1.074,40.833,-148.071,2.502
-0.413,-0.331,1.056,28.076,-71.594,24.414
-0.473,-0.264,1.059,17.700,-39.917,36.621
-0.499,-0.240,1.046,-9.094,19.470,52.063
-0.560,-0.252,0.945,-21.362,48.096,54.871
-0.574,-0.277,0.902,-29.541,102.783,58.472
-0.572,-0.272,0.895,-24.719,130.432,59.692
-0.532,-0.266,0.920,-8.850,190.674,54.993
-0.423,-0.255,1.068,-5.310,223.511,54.687
-0.130,-0.127,1.158,93.811,-380.798,7.202
-0.150,-0.149,1.181,81.543,-361.572,6.042
-0.164,-0.179,1.182,57.434,-306.396,10.010
-0.213,-0.216,1.158,44.983,-275.391,16.235
-0.317,-0.248,1.086,25.940,-207.581,22.827
-0.366,-0.273,1.023,20.508,-175.232,22.583
-0.410,-0.291,0.971,14.465,-130.127,24.292
-0.469,-0.299,0.898,11.475,-114.807,25.024
-0.476,-0.297,0.877,4.578,-90.942,24.780
-0.476,-0.273,0.877,2.258,-77.393,26.062
-0.492,-0.259,0.875,5.981,-35.095,30.090
-0.533,-0.220,0.849,10.803,-9.583,31.250
-0.545,-0.196,0.865,14.648,38.574,34.912
-0.560,-0.159,0.958,10.071,62.683,38.025
-0.544,-0.160,1.012,-16.113,114.929,48.157
-0.512,-0.125,1.143,-35.645,144.775,54.016
-0.504,-0.113,1.224,-65.918,238.281,41.260
-0.475,-0.151,1.301,-80.078,299.011,28.564
-0.492,-0.167,1.297,-118.896,407.104,2.808
-0.566,-0.214,1.192,-135.681,448.791,-20.569
-0.548,-0.282,1.041,-146.667,490.417,-75.867
-0.316,-0.357,0.640,-140.198,468.140,-86.304
-0.156,-0.311,0.563,-117.432,363.098,-83.313
0.158,-0.201,0.636,-109.619,318.542,-79.712
0.275,-0.148,0.634,-96.191,268.372,-74.707
0.403,-0.077,0.471,-86.182,245.483,-77.209
0.464,-0.075,0.366,-57.617,167.236,-83.496
0.647,-0.088,0.318,-46.753,111.450,-77.576
0.731,-0.081,0.384,-43.152,-8.057,-43.091
0.790,-0.047,0.589,-40.344,-55.115,-24.597
0.270,-0.186,0.873,-49.072,354.248,-51.453
0.385,-0.133,0.832,-93.384,311.157,-54.993
0.430,-0.154,0.786,-110.901,288.391,-60.547
0.518,-0.168,0.619,-112.366,240.723,-60.059
0.578,-0.114,0.569,-99.609,210.754,-53.345
0.641,-0.046,0.582,-75.378,152.222,-40.649
0.738,0.043,0.687,-71.838,132.996,-36.255
0.757,0.062,0.703,-74.829,111.206,-31.738
0.764,0.055,0.617,-74.524,98.389,-31.311
0.783,0.016,0.557,-58.044,50.659,-20.630
0.823,-0.015,0.535,-42.358,18.982,-6.531
0.805,0.023,0.553,-9.827,-39.307,18.066
0.734,0.065,0.574,3.662,-66.528,22.095
0.723,0.050,0.605,19.104,-125.549,33.630
0.605,0.054,0.603,20.630,-161.377,45.959
0.500,0.061,0.594,31.189,-249.695,59.692
0.311,0.006,0.633,47.363,-292.908,58.350
0.227,-0.035,0.696,95.764,-359.314,52.002
0.054,-0.109,0.855,119.263,-379.822,49.988
-0.032,-0.133,0.918,144.348,-410.828,51.147
-0.185,-0.095,1.072,141.052,-420.837,49.622
-0.232,-0.096,1.127,130.920,-423.523,43.762
-0.305,-0.161,1.166,106.506,-406.189,27.588
-0.332,-0.215,1.153,97.778,-387.695,20.203
-0.355,-0.275,1.149,87.891,-335.693,13.733
-0.365,-0.268,1.173,79.407,-302.063,14.587
-0.381,-0.264,1.174,52.795,-223.145,18.127
-0.468,-0.266,1.093,38.269,-185.852,21.912
-0.524,-0.260,1.037,10.010,-121.887,29.419
-0.607,-0.254,0.895,-1.526,-95.032,30.579
-0.783,-0.221,0.890,-47.485,327.332,22.583
-0.743,-0.234,0.883,-66.162,368.286,-5.188
-0.627,-0.271,0.859,-78.308,375.000,-19.226
-0.545,-0.295,0.856,-100.830,371.338,-42.175
-0.367,-0.350,0.864,-109.802,367.004,-47.241
-0.270,-0.369,0.869,-108.765,357.849,-45.349
-0.076,-0.352,0.907,-99.976,353.638,-41.626
-0.018,-0.310,0.898,-83.069,347.778,-42.725
0.101,-0.191,0.774,-75.439,338.745,-53.162
0.205,-0.151,0.751,-75.928,291.016,-73.853
0.397,-0.092,0.848,-90.393,262.634,-73.792
0.445,-0.086,0.865,-121.948,223.572,-65.063
0.563,-0.114,0.762,-124.573,208.069,-60.242
0.630,-0.094,0.700,-102.722,173.218,-43.030
0.683,0.025,0.592,-83.618,153.442,-38.330
0.716,0.068,0.578,-52.734,105.835,-43.030
0.817,0.059,0.569,-46.875,78.552,-41.443
0.861,0.045,0.571,-40.344,23.132,-19.470
0.888,0.057,0.580,-33.875,0.244,-5.920
0.856,0.063,0.542,-9.827,-43.152,10.376
0.806,0.032,0.498,4.211,-73.853,16.663
0.792,0.013,0.521,20.935,-150.269,43.030
0.670,0.015,0.541,23.437,-194.031,60.974
0.572,0.013,0.562,27.710,-240.906,76.050
0.471,-0.015,0.602,60.547,-325.928,91.064
0.269,-0.138,0.695,91.797,-359.375,94.971
0.150,-0.168,0.767,155.701,-406.921,98.267
-0.086,-0.141,0.908,173.889,-420.898,93.262
-0.185,-0.129,0.947,173.889,-440.796,71.472
-0.291,-0.081,1.099,159.485,-445.129,56.213
-0.462,-0.498,0.673,-204.224,454.895,-39.368
-0.135,-0.457,0.581,-187.805,413.147,-30.090
0.011,-0.341,0.667,-138.245,352.478,-28.992
0.152,-0.084,0.670,-118.286,343.445,-44.189
0.206,-0.008,0.536,-96.741,303.528,-96.924
0.443,-0.042,0.314,-93.140,257.263,-114.075
0.584,-0.077,0.297,-90.637,145.142,-99.304
0.783,-0.069,0.315,-83.679,95.154,-79.163
0.849,-0.046,0.321,-52.673,7.202,-44.800
0.941,-0.001,0.376,-36.377,-34.790,-29.846
0.945,0.016,0.407,-13.550,-123.413,2.441
0.936,0.025,0.573,-8.850,-170.715,22.278
0.878,0.046,0.642,-4.639,-258.911,67.017
0.605,0.069,0.656,11.230,-300.110,79.407
0.435,0.032,0.667,43.640,-337.707,80.994
0.099,-0.040,0.776,137.512,-395.752,63.171
-0.029,-0.052,0.888,172.302,-419.128,51.880
-0.130,-0.050,1.004,179.626,-460.693,37.720
-0.273,-0.072,1.183,164.124,-473.694,31.433
-0.296,-0.107,1.251,135.925,-457.703,18.066
-0.252,-0.147,1.438,125.488,-422.180,14.038
-0.203,-0.144,1.544,95.764,-295.959,17.456
-0.205,-0.150,1.625,71.472,-215.515,25.391
-0.286,-0.181,1.567,18.860,-63.110,45.288
-0.456,-0.265,1.395,-5.798,-2.563,57.251
-0.513,-0.270,1.333,-53.162,89.600,84.534
-0.574,-0.229,1.271,-74.646,131.165,90.698
-0.584,-0.214,1.231,-105.896,218.506,79.346
-0.560,-0.184,1.181,-116.516,263.611,64.148
-0.538,-0.161,1.185,-141.785,355.957,25.940
0.324,-0.138,0.575,-118.469,356.140,-83.008
0.451,-0.066,0.582,-115.967,314.575,-95.154
0.610,-0.042,0.457,-113.892,298.645,-103.088
0.664,-0.069,0.340,-92.041,239.258,-99.792
0.794,-0.082,0.160,-72.388,189.026,-85.327
0.865,-0.041,0.204,-36.987,76.782,-46.631
0.961,0.040,0.383,-26.367,32.349,-31.921
0.975,0.047,0.423,-6.775,-33.630,-15.930
0.948,0.034,0.471,7.202,-68.176,-10.010
0.947,0.033,0.578,27.344,-139.832,11.658
0.854,0.062,0.702,34.851,-164.673,23.437
0.736,0.071,0.660,52.307,-223.999,33.630
0.425,0.053,0.579,58.716,-276.672,35.645
0.287,0.035,0.651,74.646,-391.785,32.349
0.140,-0.087,0.915,88.684,-424.683,26.978
0.095,-0.180,0.975,123.779,-441.345,31.006
-0.100,-0.195,1.043,136.169,-442.810,36.621
-0.190,-0.155,1.109,138.184,-433.289,21.057
-0.246,-0.165,1.228,128.479,-415.955,4.822
-0.247,-0.197,1.274,97.412,-357.605,-10.864
-0.269,-0.243,1.348,81.787,-315.002,-9.888
-0.300,-0.276,1.359,55.359,-203.613,-1.709
-0.394,-0.330,1.297,44.128,-142.883,7.263
-0.452,-0.318,1.256,33.447,-86.426,20.020
-0.517,-0.266,1.172,8.911,8.301,47.119
-0.500,-0.252,1.148,-9.216,47.668,58.960
-0.434,-0.269,1.152,-60.913,122.314,83.862
-0.435,-0.262,1.146,-85.693,165.466,93.933
-0.412,-0.213,1.156,-116.028,277.161,83.191
-0.393,-0.198,1.172,-129.883,338.989,64.941
-0.182,-0.377,0.792,-77.576,301.147,-46.326
0.033,-0.420,0.925,-87.830,292.480,-25.635
0.089,-0.397,0.912,-79.529,296.936,-4.028
0.174,-0.234,0.855,-59.998,295.593,-12.939
0.250,-0.173,0.834,-27.954,283.569,-57.190
0.464,-0.116,0.797,-31.799,265.442,-67.932
0.539,-0.074,0.804,-65.674,207.520,-61.951
0.602,-0.018,0.721,-78.796,178.162,-59.570
0.653,-0.035,0.644,-80.200,148.010,-59.937
0.823,-0.022,0.670,-53.894,77.026,-47.424
0.892,0.029,0.778,-40.588,44.800,-33.752
0.921,0.078,0.860,-33.142,13.306,-12.085
0.892,0.088,0.840,-32.715,6.409,-5.981
0.854,0.072,0.777,-20.264,-22.644,7.629
0.743,0.058,0.664,-8.789,-51.453,14.343
0.713,0.040,0.667,5.676,-134.827,30.640
0.602,0.060,0.705,0.244,-182.068,44.189
0.471,0.059,0.661,-3.967,-279.053,53.772
0.222,-0.083,0.605,15.808,-324.585,49.072
0.106,-0.140,0.648,85.205,-393.738,43.030
-0.072,-0.126,0.890,110.596,-414.368,39.368
-0.125,-0.078,1.025,104.736,-428.040,26.489
-0.198,-0.033,1.187,82.031,-423.401,15.991
-0.200,-0.084,1.217,43.884,-380.676,0.183
-0.198,-0.204,1.229,36.377,-342.407,2.319
-0.229,-0.233,1.224,32.898,-239.075,17.029
-0.327,-0.296,1.091,33.569,-183.838,25.940
-0.392,-0.301,1.008,34.668,-101.257,45.776
-0.513,-0.255,0.920,34.668,-73.792,53.040
-0.560,-0.222,0.921,34.180,-50.415,57.190
0.682,-0.094,0.505,-45.288,25.208,-57.678
0.765,-0.108,0.612,-32.898,-0.244,-46.936
0.758,-0.089,0.627,-0.061,-56.274,-24.231
0.777,-0.061,0.736,16.907,-88.501,-14.099
0.753,-0.020,0.899,32.227,-130.615,5.615
0.669,-0.004,0.873,30.701,-146.484,14.282
0.471,0.009,0.801,23.865,-206.299,23.376
0.378,0.003,0.799,24.170,-247.009,23.987
0.288,-0.021,0.808,39.063,-320.435,19.653
0.106,-0.095,0.873,51.880,-350.220,18.005
0.028,-0.127,0.929,79.224,-390.381,16.113
-0.120,-0.138,1.028,89.722,-398.987,15.564
-0.194,-0.137,1.058,101.013,-394.775,1.404
-0.274,-0.170,1.134,99.365,-385.376,-9.338
-0.293,-0.177,1.198,84.412,-345.276,-25.757
-0.311,-0.262,1.244,77.271,-309.448,-33.508
-0.319,-0.326,1.215,53.894,-229.370,-27.893
-0.398,-0.360,1.149,35.339,-193.970,-13.733
-0.461,-0.341,1.108,5.371,-124.939,8.179
-0.581,-0.313,0.988,-1.465,-90.820,12.634
-0.628,-0.294,0.935,-4.150,-30.945,21.606
-0.654,-0.199,0.944,-3.418,-2.563,28.503
-0.643,-0.139,1.004,-13.306,63.538,44.495
-0.646,-0.108,1.019,-23.499,103.516,50.049
-0.631,-0.115,0.993,-47.485,182.373,50.110
-0.559,-0.095,1.100,-65.613,218.567,45.837
-0.544,-0.088,1.178,-108.154,307.739,22.949
-0.566,-0.124,1.187,-124.878,364.075,1.160
-0.578,-0.188,1.084,-144.653,460.693,-49.194
-0.536,-0.354,0.797,-149.536,478.027,-65.613
-0.329,-0.478,0.472,-206.177,454.163,-44.434
-0.140,-0.399,0.332,-137.939,315.674,-36.804
0.232,-0.148,0.423,-89.966,260.803,-40.771
0.359,-0.028,0.525,-25.940,210.999,-57.556
0.504,0.095,0.585,-19.043,196.472,-68.176
0.537,0.074,0.494,-33.630,137.085,-76.843
0.653,-0.027,0.318,-38.757,82.642,-69.031
0.739,-0.031,0.361,-34.790,-37.781,-32.227
0.806,0.018,0.542,-26.733,-82.703,-15.381
0.818,0.026,0.640,-2.319,-137.512,4.395
0.775,0.033,0.749,8.972,-154.114,14.282
0.682,0.037,0.717,18.433,-172.974,24.902
0.447,0.027,0.674,38.940,-244.507,41.321
0.322,0.001,0.707,53.711,-291.321,45.166
0.191,-0.047,0.745,103.149,-370.850,42.664
-0.063,-0.086,0.884,131.775,-398.376,36.926
-0.160,-0.081,0.982,161.438,-426.086,16.968
-0.261,-0.116,1.129,160.461,-429.443,9.277
-0.283,-0.133,1.199,139.282,-414.124,5.798
-0.298,-0.121,1.365,123.779,-387.878,5.493
-0.290,-0.145,1.428,90.454,-286.377,-4.333
-0.306,-0.274,1.453,69.702,-224.854,-1.709
-0.368,-0.299,1.427,27.710,-114.685,23.743
-0.518,-0.296,1.320,11.230,-64.819,34.302
-0.552,-0.277,1.258,-13.062,21.912,49.133
-0.595,-0.228,1.182,-22.766,58.899,52.673
-0.562,-0.224,1.158,-49.316,130.798,57.312
-0.496,-0.178,1.158,-67.871,165.222,62.500
-0.477,-0.148,1.169,-99.304,252.197,50.537
-0.458,-0.134,1.135,-112.061,302.673,35.767
-0.539,-0.472,0.550,-162.231,508.728,-43.457
-0.343,-0.444,0.455,-130.249,380.920,-34.546
0.033,-0.247,0.523,-104.980,324.463,-32.043
0.143,-0.161,0.563,-64.575,265.015,-42.114
0.273,-0.041,0.533,-50.720,243.591,-52.368
0.338,-0.032,0.508,-36.011,178.284,-69.824
0.477,-0.097,0.429,-32.776,131.958,-67.444
0.557,-0.108,0.452,-21.423,30.151,-41.748
0.656,-0.085,0.604,-11.292,-9.094,-28.137
0.665,-0.078,0.680,14.221,-61.035,-13.367
0.685,-0.080,0.839,23.926,-80.872,-7.690
0.669,-0.070,0.886,28.015,-99.426,1.953
0.507,-0.034,0.812,26.245,-145.264,24.780
0.399,-0.018,0.744,25.757,-183.105,32.349
0.164,-0.019,0.707,26.855,-292.786,40.344
0.049,-0.067,0.740,34.790,-349.731,41.016
-0.136,-0.141,0.919,79.346,-424.255,35.950
-0.218,-0.140,1.000,105.591,-435.242,30.029
-0.359,-0.100,1.108,133.484,-431.091,6.836
-0.382,-0.117,1.161,132.690,-421.997,-10.864
-0.376,-0.151,1.229,109.375,-387.329,-31.250
-0.354,-0.142,1.419,93.140,-352.661,-33.691
-0.339,-0.199,1.456,57.861,-239.014,-34.180
-0.388,-0.326,1.341,38.879,-175.598,-18.494
-0.468,-0.324,1.260,11.902,-63.416,21.118
-0.583,-0.281,1.128,5.005,-18.616,33.997
-0.600,-0.230,1.127,-18.921,46.204,57.190
-0.600,-0.142,1.177,-39.734,80.750,65.735
-0.602,-0.161,1.142,-78.979,164.917,71.716
-0.561,-0.152,1.130,-93.445,209.290,69.519
-0.384,-0.259,1.127,-132.568,368.408,70.374
-0.393,-0.400,0.920,-158.386,417.480,50.232
-0.344,-0.424,0.801,-148.010,409.424,31.372
-0.196,-0.319,0.636,-134.766,381.653,21.179
-0.093,-0.229,0.621,-118.225,342.957,7.141
0.107,-0.104,0.694,-96.130,256.653,-23.560
0.182,-0.078,0.712,-94.849,219.727,-33.142
0.228,-0.079,0.678,-86.365,155.884,-39.124
0.326,-0.077,0.609,-74.585,120.300,-36.194
0.391,-0.044,0.644,-52.063,51.636,-25.024
0.488,0.009,0.756,-44.373,27.771,-21.606
0.521,0.021,0.805,-34.973,3.418,-18.005
0.527,0.045,0.857,-32.043,-2.930,-17.212
0.514,0.042,0.851,-21.484,-17.761,-18.738
0.506,0.040,0.862,-12.024,-28.442,-19.226
0.522,0.055,0.914,2.380,-45.166,-19.714
0.551,0.079,1.006,1.038,-45.837,-19.470
0.545,0.079,1.005,-11.536,-39.734,-18.494
0.522,0.051,0.971,-17.334,-38.391,-18.066
0.510,0.036,0.958,-23.437,-42.358,-15.442
0.496,0.021,0.956,-23.865,-45.410,-13.855
0.494,0.022,0.958,-23.926,-46.631,-9.888
0.476,0.028,0.941,-23.499,-44.739,-8.606
0.467,0.027,0.928,-19.165,-38.818,-8.301
0.451,0.024,0.912,-16.418,-35.706,-7.935
0.442,0.027,0.913,-13.489,-29.724,-4.944
0.410,0.032,0.901,-13.000,-26.428,-3.235
0.393,0.030,0.887,-10.254,-21.851,-1.526
0.381,0.030,0.884,-8.240,-21.729,-0.305
0.377,0.033,0.893,-6.042,-21.729,2.380
-0.255,-0.081,1.243,82.886,-300.415,-7.935
-0.245,-0.137,1.232,61.340,-250.122,-3.540
-0.286,-0.177,1.256,50.415,-221.130,6.653
-0.312,-0.184,1.250,32.715,-137.451,20.630
-0.365,-0.209,1.176,26.062,-94.299,26.123
-0.403,-0.201,1.132,17.212,-27.039,37.231
-0.487,-0.186,1.057,16.418,-1.404,38.757
-0.511,-0.175,1.051,12.451,44.617,40.161
-0.505,-0.132,1.106,5.066,68.420,42.542
-0.489,-0.122,1.127,-21.851,120.239,49.927
-0.433,-0.128,1.152,-36.377,148.437,51.697
-0.389,-0.130,1.205,-60.059,217.895,49.133
-0.380,-0.147,1.288,-68.726,263.916,44.373
-0.428,-0.176,1.232,-75.378,355.835,24.780
-0.446,-0.191,1.076,-75.439,382.263,11.536
-0.381,-0.141,1.097,-91.248,400.024,-20.020
-0.232,-0.048,1.157,-112.061,407.959,-40.527
-0.180,-0.083,1.066,-160.828,415.771,-76.172
-0.098,-0.274,0.688,-170.654,398.437,-82.825
-0.018,-0.330,0.518,-138.428,311.157,-70.679
0.231,-0.178,0.540,-109.863,260.498,-59.326
0.349,-0.063,0.662,-75.134,208.313,-52.917
0.475,0.024,0.690,-73.975,203.979,-56.152
0.498,-0.005,0.585,-74.646,176.514,-61.035
0.566,-0.078,0.418,-65.735,142.700,-57.434
0.610,-0.073,0.423,-34.119,58.655,-39.185
0.671,0.012,0.551,-20.996,23.010,-30.701
0.672,0.046,0.592,-11.963,-4.089,-26.062
0.687,0.048,0.638,-1.770,-44.067,-24.780
0.698,0.044,0.672,-1.831,-62.439,-20.813