aX,aY,aZ,gX,gY,gZ
0.876,0.055,0.028,-8.423,65.491,18.127
0.884,0.058,-0.010,0.061,55.115,14.832
0.886,0.072,0.009,16.418,43.396,6.653
0.897,0.112,0.059,17.944,42.969,2.808
0.909,0.120,0.074,2.319,44.922,1.709
0.912,0.130,0.061,-8.911,45.349,3.784
0.899,0.133,0.039,-22.522,43.823,4.639
0.866,0.127,-0.046,-22.583,40.527,2.686
0.856,0.126,-0.070,-14.771,28.198,-2.502
0.854,0.135,-0.046,-10.559,24.231,-6.348
0.866,0.130,-0.027,-9.155,23.071,-10.681
0.896,0.098,-0.033,-20.874,21.240,-12.451
0.902,0.073,-0.056,-29.358,19.287,-8.911
0.887,0.050,-0.120,-33.691,14.221,-2.075
0.888,0.050,-0.127,-28.198,9.827,-2.441
0.912,0.049,-0.090,-12.146,5.676,-7.996
0.918,0.049,-0.080,-5.615,8.545,-10.254
0.922,0.052,-0.073,-0.854,13.489,-10.376
0.926,0.053,-0.062,-2.563,13.245,-8.179
0.925,0.059,-0.065,-8.545,12.207,-1.709
0.919,0.087,-0.092,-12.085,9.338,1.160
0.924,0.097,-0.091,-21.240,-1.160,6.042
0.931,0.113,-0.068,-25.024,-5.737,8.911
0.929,0.124,-0.054,-27.100,-8.911,11.963
0.918,0.137,-0.051,-23.743,-6.287,10.132
0.915,0.134,-0.064,-8.179,4.578,1.099
0.917,0.137,-0.078,-2.441,7.690,-2.502
0.919,0.136,-0.076,-4.333,4.944,-4.089
0.926,0.134,-0.073,-8.179,1.770,-2.563
0.924,0.137,-0.071,-11.780,-2.502,-0.305
0.872,-0.019,0.285,-21.912,62.561,52.185
0.846,0.014,0.240,-26.062,64.392,51.147
0.835,0.040,0.185,-28.259,61.279,45.410
0.834,0.047,0.179,-28.442,56.641,41.992
0.849,0.053,0.200,-27.283,51.147,33.752
0.858,0.057,0.213,-22.400,56.396,28.137
0.863,0.059,0.211,-8.667,81.665,13.428
0.880,0.036,0.122,-5.249,91.248,7.568
0.899,0.025,0.079,-6.287,83.984,7.324
0.942,0.020,0.100,-8.545,75.500,10.864
0.949,0.021,0.111,-13.916,72.266,15.381
0.953,0.015,0.066,-15.381,74.951,15.808
0.958,0.019,0.035,-13.123,75.989,15.625
0.974,0.030,-0.009,-11.414,74.402,15.686
0.971,0.029,-0.041,-11.475,64.819,18.921
0.954,0.027,-0.090,-12.207,56.091,21.790
0.939,0.032,-0.110,-12.817,39.307,26.733
0.903,0.055,-0.132,-13.489,31.006,28.564
0.896,0.068,-0.105,-14.771,23.376,29.480
0.883,0.072,-0.104,-19.836,17.639,27.771
0.873,0.074,-0.131,-21.484,16.052,26.428
0.855,0.093,-0.156,-19.592,7.080,23.499
0.849,0.102,-0.148,-17.273,1.221,21.545
0.843,0.114,-0.133,-11.597,-8.728,17.029
0.858,0.124,-0.072,-9.033,-11.292,13.977
0.873,0.120,-0.047,-8.728,-6.042,10.071
0.877,0.119,-0.073,-10.376,-2.502,9.949
0.871,0.128,-0.078,-10.681,-2.625,9.827
0.860,0.146,-0.058,-9.888,-3.357,8.484
0.856,0.147,-0.062,-8.545,-2.319,4.333
0.922,-0.197,0.205,-25.269,64.331,49.194
0.943,-0.177,0.208,-13.550,56.641,45.471
0.941,-0.168,0.186,-10.132,57.190,44.373
0.922,-0.162,0.138,-17.578,50.842,47.363
0.912,-0.159,0.110,-23.987,43.457,50.232
0.902,-0.148,0.085,-26.855,24.597,54.932
0.890,-0.084,0.089,-22.949,15.503,54.871
0.900,-0.054,0.124,-11.414,9.827,46.509
0.949,-0.032,0.190,-7.019,16.296,41.016
0.955,-0.025,0.181,-5.737,34.058,34.668
0.956,-0.019,0.148,-7.690,36.194,33.508
0.963,-0.018,0.149,-10.132,31.189,34.058
0.979,0.002,0.176,-8.972,30.029,33.936
0.978,0.015,0.183,-6.409,35.767,30.151
0.973,0.013,0.138,-6.714,39.551,27.405
0.978,0.001,0.101,-9.460,40.405,24.658
0.988,-0.013,0.049,-10.193,37.292,25.085
0.994,-0.010,0.048,-6.470,28.687,26.123
0.997,0.004,0.065,-3.601,25.696,26.062
0.994,0.014,0.076,-2.014,24.658,25.757
0.984,0.023,0.070,-5.371,28.015,25.208
0.959,0.025,0.010,-9.399,27.893,25.635
0.950,0.025,-0.008,-15.015,19.958,27.283
0.947,0.037,-0.012,-15.198,14.893,27.466
0.948,0.049,-0.003,-12.756,7.874,26.001
0.946,0.063,0.003,-11.414,6.592,24.231
0.951,0.064,0.012,-9.949,5.981,21.362
0.951,0.074,0.028,-10.864,6.897,20.996
0.945,0.081,0.027,-15.381,7.019,20.874
0.949,0.094,0.042,-16.846,7.385,20.630
0.934,-0.120,0.107,-10.132,23.071,46.997
0.929,-0.068,0.114,-9.033,19.531,49.622
0.918,-0.035,0.127,-3.845,18.921,48.584
0.899,0.020,0.155,0.549,23.132,42.847
0.912,0.030,0.158,4.578,32.043,31.982
0.914,0.032,0.146,1.343,33.203,32.104
0.908,0.043,0.127,-11.169,28.198,38.879
0.886,0.079,0.108,-15.015,24.475,39.795
0.888,0.085,0.114,-10.071,24.963,31.250
0.907,0.079,0.148,-3.845,31.616,25.146
0.901,0.077,0.125,0.183,46.082,16.846
0.897,0.073,0.051,-2.991,45.898,16.479
0.898,0.076,0.027,-6.897,37.842,18.616
0.912,0.081,0.020,-5.005,34.363,18.250
0.926,0.088,0.037,2.136,34.302,13.367
0.945,0.102,0.059,5.493,37.598,8.911
0.952,0.102,0.054,8.240,41.504,3.662
0.958,0.095,0.045,9.949,44.556,-3.906
0.972,0.074,0.021,7.385,42.175,-4.333
0.976,0.067,0.013,-0.549,34.851,-0.366
0.980,0.064,0.001,-2.075,33.569,0.732
0.981,0.062,-0.008,0.671,35.583,-0.610
0.977,0.056,-0.024,1.343,35.461,-0.732
0.972,0.054,-0.035,-2.869,29.419,2.380
0.971,0.047,-0.042,-6.042,25.085,4.639
0.974,0.048,-0.033,-8.911,23.376,8.240
0.960,0.055,-0.048,-7.629,26.855,7.874
0.950,0.051,-0.071,-1.709,30.212,4.456
0.939,0.046,-0.079,1.709,28.748,2.869
0.944,0.042,-0.079,5.188,26.611,1.343
1.004,-0.054,0.007,-3.723,68.237,46.143
0.999,-0.050,-0.024,-4.456,64.209,48.645
1.003,-0.047,-0.028,2.869,63.904,47.180
1.005,-0.032,-0.031,8.423,67.505,45.044
0.997,-0.022,-0.050,8.850,70.862,44.800
0.961,-0.020,-0.119,4.517,66.223,47.241
0.949,-0.015,-0.138,1.221,47.058,53.467
0.952,0.017,-0.091,1.953,39.612,55.847
0.954,0.042,-0.066,-0.061,38.269,60.364
0.929,0.110,-0.075,-1.038,41.687,61.096
0.902,0.147,-0.096,1.526,47.729,52.612
0.862,0.173,-0.163,4.028,46.631,44.922
0.856,0.170,-0.193,12.207,32.654,32.593
0.864,0.176,-0.159,16.602,23.376,28.992
0.881,0.183,-0.103,17.822,17.395,26.794
0.862,0.222,-0.107,4.761,18.738,28.442
0.832,0.255,-0.140,-3.906,18.188,28.442
0.818,0.274,-0.156,-9.766,8.484,13.916
0.843,0.242,-0.172,-6.531,4.944,3.357
0.862,0.217,-0.163,5.920,4.028,-10.071
0.884,0.201,-0.096,8.057,6.775,-13.000
0.883,0.203,-0.091,-6.653,10.986,-17.395
0.901,0.167,-0.147,-16.785,7.996,-19.348
0.916,0.143,-0.167,-19.592,1.648,-22.095
0.929,0.121,-0.182,-14.282,1.221,-23.315
0.939,0.110,-0.168,-6.836,1.587,-24.658
0.975,0.076,-0.146,-8.240,2.380,-22.644
0.983,0.063,-0.157,-18.250,-0.488,-10.559
0.974,0.061,-0.167,-22.949,-4.639,-2.380
0.966,0.074,-0.168,-26.306,-12.756,8.850
1.013,-0.029,0.192,-15.015,63.721,22.766
1.017,-0.018,0.178,-11.047,60.730,23.315
1.021,-0.009,0.185,-6.897,54.260,23.743
1.046,-0.019,0.197,-7.385,52.795,23.499
1.064,-0.038,0.196,-11.475,52.124,26.428
1.064,-0.059,0.153,-13.367,52.429,29.602
1.055,-0.060,0.114,-9.277,45.532,34.607
1.042,-0.031,0.092,-2.502,40.100,35.400
1.038,-0.014,0.106,9.766,34.668,32.654
1.047,-0.014,0.139,11.780,36.072,31.738
1.036,-0.007,0.132,10.376,39.734,33.386
0.994,0.040,0.089,5.066,45.410,36.438
0.981,0.057,0.068,6.287,45.959,34.119
0.970,0.068,0.055,14.404,41.504,27.954
0.960,0.074,0.082,16.541,36.438,26.733
0.968,0.079,0.118,12.024,30.457,29.297
0.974,0.111,0.146,8.362,32.593,30.518
0.960,0.133,0.124,6.226,40.955,26.672
0.926,0.152,0.079,7.263,43.152,21.912
0.923,0.140,0.073,10.437,47.424,12.573
0.922,0.115,0.040,10.315,50.049,10.498
0.917,0.110,0.014,8.606,51.697,9.766
0.907,0.108,-0.013,3.845,50.964,8.423
0.904,0.108,-0.015,1.709,49.438,6.287
0.914,0.099,-0.016,-5.249,49.316,2.075
0.908,0.077,-0.089,-7.996,47.913,1.831
0.903,0.076,-0.117,-2.502,37.170,0.671
0.911,0.102,-0.103,2.869,31.433,-1.648
0.927,0.115,-0.072,6.042,26.184,-5.920
0.936,0.124,-0.053,2.930,28.809,-6.714
0.848,-0.084,0.673,-15.747,178.833,10.315
0.866,-0.096,0.634,-19.592,158.997,12.390
0.899,-0.109,0.568,-15.076,152.832,12.634
0.914,-0.105,0.559,-5.615,145.386,12.085
0.946,-0.094,0.570,-8.179,144.226,12.695
0.942,-0.095,0.526,-21.973,139.648,15.320
0.947,-0.116,0.417,-26.062,131.104,16.846
0.961,-0.123,0.395,-25.391,109.253,23.743
0.994,-0.095,0.424,-23.804,103.088,27.283
0.989,-0.073,0.419,-24.658,104.492,28.748
0.973,-0.052,0.320,-26.672,103.149,27.405
0.978,-0.048,0.280,-33.081,86.609,29.724
0.993,-0.034,0.247,-34.912,78.247,31.250
0.996,-0.033,0.241,-26.489,75.256,25.696
0.984,-0.036,0.197,-19.714,77.454,21.912
0.977,-0.035,0.146,-14.954,66.711,25.513
0.976,0.003,0.105,-14.221,53.589,31.067
0.973,0.038,0.131,-10.986,42.480,33.447
0.979,0.057,0.167,-0.427,38.879,23.437
1.009,0.036,0.190,2.686,45.410,17.700
1.014,0.021,0.151,3.967,58.350,17.212
1.004,0.008,0.063,4.089,56.824,20.386
1.000,0.007,0.048,5.127,43.396,25.208
0.996,-0.006,0.048,5.981,36.743,25.024
1.007,-0.023,0.072,5.615,32.104,23.132
1.019,-0.051,0.062,2.869,34.668,24.902
1.012,-0.049,0.037,-0.916,34.546,32.898
0.998,-0.028,0.022,-0.366,32.715,36.804
0.988,-0.016,0.011,1.465,31.372,40.161
0.956,0.037,0.009,6.409,29.785,44.250
0.785,-0.084,0.713,1.831,184.204,12.207
0.792,-0.078,0.673,7.385,182.068,4.700
0.828,-0.086,0.587,6.714,175.293,3.357
0.867,-0.099,0.566,3.662,156.921,5.066
0.971,-0.119,0.598,0.061,151.917,8.484
0.998,-0.120,0.593,-12.390,153.748,16.357
0.993,-0.103,0.494,-14.648,154.846,16.724
0.997,-0.097,0.438,-8.179,148.743,9.644
1.033,-0.121,0.346,-6.226,141.113,8.545
1.049,-0.140,0.307,-12.756,117.187,19.226
1.070,-0.143,0.296,-18.250,106.323,27.222
1.068,-0.121,0.293,-21.484,101.379,32.776
1.040,-0.077,0.223,-18.005,106.567,32.593
1.021,-0.064,0.168,-15.259,107.666,30.212
1.014,-0.063,0.123,-15.625,92.834,28.687
1.034,-0.092,0.075,-18.494,80.200,31.616
1.049,-0.098,0.079,-19.897,58.838,41.626
1.083,-0.059,0.126,-17.639,54.443,45.349
1.088,-0.032,0.136,-15.747,53.101,48.096
1.075,-0.016,0.093,-17.944,49.927,48.645
1.069,-0.020,0.063,-16.479,36.377,48.279
1.069,-0.036,0.071,-9.216,32.471,45.105
1.069,-0.050,0.087,2.502,39.246,35.767
1.055,-0.077,0.054,1.648,44.373,33.875
1.035,-0.078,0.014,-3.723,45.654,37.292
0.977,-0.034,-0.034,-3.784,41.565,38.940
0.949,-0.007,-0.036,-2.441,36.621,37.354
0.928,-0.011,-0.047,-2.136,24.658,28.320
0.946,-0.016,-0.006,-4.211,18.250,27.710
0.953,-0.001,0.025,-9.583,24.780,35.095
0.987,-0.134,0.005,1.648,85.083,33.203
0.982,-0.137,-0.002,2.441,76.538,34.912
0.980,-0.142,-0.017,8.545,64.758,32.959
0.977,-0.157,-0.058,12.695,59.204,32.349
0.979,-0.168,-0.071,14.038,41.504,38.330
0.984,-0.170,-0.086,8.484,30.090,45.410
0.978,-0.155,-0.099,-2.686,8.545,57.373
0.971,-0.114,-0.083,-0.732,2.258,58.105
0.969,-0.091,-0.060,14.282,3.967,50.720
0.975,-0.067,-0.039,17.517,6.165,47.852
0.976,-0.059,-0.044,9.888,3.418,51.575
0.964,-0.021,-0.047,5.859,0.122,54.504
0.957,0.010,-0.030,8.118,-1.587,52.612
0.937,0.062,0.009,10.681,0.610,48.096
0.935,0.071,0.015,11.108,2.991,43.274
0.949,0.086,0.021,5.310,6.104,38.025
0.952,0.102,0.016,1.709,8.362,37.415
0.951,0.124,0.006,-2.808,10.986,35.095
0.950,0.145,-0.012,-3.479,10.193,31.982
0.952,0.138,-0.029,2.502,8.545,23.804
0.945,0.135,-0.021,7.263,8.362,20.508
0.944,0.143,0.004,7.874,12.451,16.113
0.941,0.150,0.004,2.319,14.893,14.771
0.945,0.138,-0.019,-12.207,13.367,13.184
0.968,0.114,-0.062,-15.991,11.230,13.367
0.972,0.117,-0.065,-12.512,11.230,12.634
0.947,0.141,-0.051,-7.629,13.489,9.216
0.938,0.137,-0.044,-3.906,15.503,3.784
0.944,0.103,-0.064,-4.333,18.127,-2.380
0.939,0.099,-0.078,-6.897,18.005,-0.732
1.014,-0.005,0.225,-23.376,65.491,36.987
1.022,0.009,0.229,-29.114,47.668,40.955
1.034,0.062,0.243,-29.480,41.931,40.588
1.045,0.069,0.249,-27.161,40.527,37.659
1.059,0.059,0.251,-15.991,53.589,30.396
1.041,0.065,0.228,-11.597,64.941,29.175
1.003,0.082,0.183,-12.329,80.383,24.170
0.961,0.061,0.073,-15.991,78.369,19.714
0.969,0.028,0.041,-25.208,61.523,16.235
0.990,-0.020,0.010,-28.198,53.162,17.090
0.995,-0.026,0.007,-27.527,43.884,17.273
1.011,-0.018,-0.003,-24.353,42.969,15.747
1.018,-0.013,-0.025,-11.475,46.204,12.268
0.999,0.008,-0.086,-4.761,45.105,12.390
0.979,0.018,-0.102,-1.099,26.733,14.160
0.978,0.029,-0.064,-2.319,15.076,13.855
0.998,0.041,-0.017,-4.944,9.277,11.047
1.013,0.080,0.026,-8.728,15.198,9.338
1.006,0.090,0.010,-13.489,21.606,7.324
0.988,0.094,-0.046,-17.334,23.621,4.456
0.985,0.100,-0.059,-15.869,18.982,4.150
0.987,0.120,-0.036,-11.414,8.972,3.784
0.994,0.122,-0.008,-7.324,8.606,2.014
1.006,0.112,0.012,3.235,21.362,-2.686
0.997,0.092,-0.004,5.615,28.503,-2.563
0.977,0.089,-0.023,1.892,29.236,-0.305
0.958,0.074,-0.037,-2.014,24.841,1.160
0.960,0.068,-0.036,-9.155,18.738,7.324
0.942,0.069,-0.049,-11.841,19.165,10.498
0.926,0.069,-0.067,-10.254,22.827,8.118
1.011,-0.040,0.060,11.292,58.594,18.677
1.004,-0.036,0.046,18.433,62.134,12.878
0.988,-0.028,0.050,15.381,60.608,13.794
0.975,-0.020,0.055,2.075,56.641,17.273
0.959,-0.008,0.012,-3.967,53.589,18.433
0.954,0.002,-0.013,-6.836,48.035,19.775
0.947,0.025,-0.001,-2.808,37.537,21.240
0.942,0.034,0.012,0.488,36.560,20.081
0.938,0.047,0.026,1.282,39.551,15.503
0.927,0.069,0.016,-1.648,42.114,12.329
0.924,0.059,-0.023,-5.859,41.870,9.216
0.921,0.057,-0.096,-4.272,37.292,10.437
0.918,0.072,-0.099,3.967,23.865,8.606
0.941,0.091,-0.017,8.118,20.142,3.967
0.957,0.094,0.018,8.606,26.794,-6.409
0.977,0.073,-0.019,3.967,31.616,-9.033
0.977,0.052,-0.067,-0.549,33.447,-9.338
0.973,0.021,-0.127,-0.671,27.649,-6.042
0.975,0.018,-0.122,1.648,21.790,-2.930
0.979,0.025,-0.096,-1.343,12.390,5.432
0.987,0.036,-0.068,-7.568,11.658,9.949
0.984,0.034,-0.079,-18.677,14.160,17.761
0.967,0.036,-0.111,-19.470,15.930,19.409
0.956,0.038,-0.126,-11.292,18.066,15.442
0.944,0.027,-0.162,-5.066,17.456,11.780
0.944,0.017,-0.174,4.089,9.033,8.911
0.944,0.009,-0.139,6.104,4.150,9.521
0.946,0.014,-0.114,7.019,5.493,10.254
0.946,0.029,-0.109,5.859,9.949,10.559
0.945,0.036,-0.122,-0.793,10.620,13.855
1.128,-0.058,0.402,-30.090,103.455,9.949
1.101,-0.068,0.313,-33.020,99.426,12.024
1.089,-0.067,0.284,-38.757,80.566,18.250
1.079,-0.068,0.239,-36.682,72.266,18.738
1.075,-0.077,0.212,-21.301,62.256,17.212
1.076,-0.096,0.192,-12.085,57.800,18.005
1.079,-0.097,0.209,-1.038,54.443,22.278
1.070,-0.089,0.207,-0.916,56.702,23.499
1.055,-0.088,0.168,-2.930,58.533,24.536
1.037,-0.083,0.099,-1.587,54.504,27.710
1.033,-0.077,0.084,3.235,50.354,30.029
1.032,-0.048,0.122,13.062,42.786,34.363
1.028,-0.026,0.148,13.916,41.260,36.133
1.024,-0.008,0.161,5.371,42.297,38.574
1.008,0.011,0.136,-1.160,43.091,39.368
0.995,0.015,0.100,-4.578,44.189,37.231
0.982,0.010,0.048,1.587,44.495,34.241
0.978,0.008,0.044,17.761,46.631,28.259
0.964,0.008,0.026,19.104,45.715,27.771
0.958,0.016,0.013,8.728,35.950,30.029
0.979,0.021,0.021,3.296,31.250,29.968
0.995,0.005,0.024,0.671,29.541,29.663
1.008,-0.016,0.019,6.409,34.363,31.250
0.997,-0.007,0.013,10.803,37.659,33.386
0.977,0.010,0.005,9.888,35.583,37.964
0.954,0.037,-0.006,5.859,31.311,39.246
0.958,0.054,-0.006,3.540,29.114,39.185
0.941,0.106,-0.019,4.822,30.701,37.537
0.927,0.115,-0.030,8.057,31.738,29.968
0.905,0.107,-0.056,10.620,31.067,27.222
0.922,0.006,0.354,-7.202,132.629,9.277
0.953,-0.013,0.316,-5.615,126.892,9.766
0.955,-0.018,0.294,-4.639,113.281,15.015
0.946,0.008,0.257,-5.981,104.675,18.066
0.947,0.027,0.245,-6.592,88.867,18.066
0.969,0.042,0.246,-2.869,85.449,14.038
0.977,0.037,0.241,6.531,85.327,4.639
0.991,0.015,0.206,7.874,83.252,3.540
0.994,0.019,0.189,6.165,73.853,8.362
0.976,0.047,0.160,7.446,69.458,8.728
0.972,0.053,0.149,12.329,60.913,3.906
0.991,0.047,0.157,13.000,57.129,2.197
1.007,0.043,0.170,6.531,54.871,4.822
1.009,0.041,0.134,2.502,56.213,7.080
0.999,0.043,0.097,0.732,56.274,8.423
0.999,0.042,0.076,3.418,49.377,6.409
1.024,0.026,0.073,6.165,46.204,4.028
1.041,0.014,0.092,8.240,48.462,0.793
1.049,-0.009,0.064,4.333,52.063,2.075
1.042,-0.006,0.026,-5.066,48.889,9.460
1.042,0.019,0.002,-6.042,43.823,11.597
1.043,0.022,0.003,-5.798,34.912,10.986
1.056,0.008,-0.003,-6.897,31.921,10.498
1.062,0.003,-0.010,-7.690,31.799,12.207
1.046,0.011,-0.032,-7.019,33.142,13.855
1.023,0.025,-0.050,-5.432,30.090,13.855
1.006,0.038,-0.076,-3.601,25.513,12.329
1.012,0.031,-0.073,1.160,18.677,12.085
1.016,0.017,-0.042,0.916,18.188,14.709
1.004,0.020,-0.045,-2.563,18.188,18.433
0.961,0.014,0.374,-22.888,127.563,8.789
0.968,-0.005,0.294,-20.020,121.155,10.620
0.977,-0.002,0.281,-13.855,102.783,15.869
0.994,0.024,0.286,-12.146,96.924,16.907
1.000,0.038,0.282,-10.559,95.581,14.099
1.002,0.055,0.227,-8.606,98.633,10.376
1.009,0.043,0.175,-3.967,97.656,5.615
1.022,0.011,0.095,-2.258,89.294,7.935
1.025,0.013,0.096,-1.282,78.308,12.573
1.023,0.038,0.138,0.244,64.819,18.982
1.015,0.052,0.153,2.563,66.528,17.944
1.004,0.064,0.139,5.066,77.820,11.841
0.983,0.066,0.036,2.869,78.491,10.925
0.976,0.059,-0.008,2.441,64.209,15.503
0.958,0.071,-0.007,7.263,56.030,16.296
0.964,0.071,0.026,19.104,51.575,7.690
1.009,0.049,0.067,18.982,55.725,3.845
1.016,0.043,0.033,2.808,60.181,7.080
1.012,0.030,-0.042,-4.395,56.030,10.315
1.015,0.015,-0.060,-4.578,52.063,11.169
1.013,-0.000,-0.104,10.315,48.889,8.911
1.007,0.003,-0.107,15.076,43.945,10.193
1.006,0.005,-0.092,9.338,30.640,17.822
0.987,0.017,-0.104,3.113,26.733,22.400
0.972,0.038,-0.123,-3.479,19.043,26.489
0.957,0.078,-0.152,-1.831,14.954,24.719
0.954,0.090,-0.162,6.714,5.432,19.104
0.949,0.106,-0.126,9.338,0.122,17.029
0.955,0.103,-0.079,6.531,-1.770,13.733
0.968,0.099,-0.047,3.052,5.066,13.184
0.959,0.020,0.246,-0.610,100.952,16.785
0.968,0.030,0.246,2.014,94.299,17.273
0.960,0.034,0.226,-11.353,85.449,22.705
0.949,0.040,0.182,-15.442,80.078,23.193
0.950,0.038,0.144,-13.611,76.111,21.362
0.964,0.045,0.109,3.662,68.970,15.198
0.968,0.043,0.107,11.108,66.162,12.451
0.971,0.030,0.105,10.803,58.472,11.353
0.979,-0.013,0.102,5.493,53.345,13.733
0.980,-0.016,0.096,-0.916,46.936,20.813
0.966,0.009,0.090,-0.305,47.668,22.217
0.952,0.021,0.076,2.014,51.392,21.362
0.924,0.039,0.030,1.892,50.720,20.508
0.922,0.049,0.004,2.380,42.664,20.081
0.935,0.077,-0.005,4.272,37.292,20.264
0.943,0.094,0.009,6.592,33.752,19.958
0.959,0.126,0.037,6.836,34.119,18.188
0.965,0.132,0.031,3.174,35.095,17.456
0.973,0.132,0.021,-5.127,31.921,18.250
0.986,0.130,-0.008,-6.531,28.809,19.653
0.984,0.137,-0.014,-3.052,22.156,21.118
0.975,0.158,0.001,-0.061,20.325,19.348
0.979,0.155,0.021,1.587,23.743,13.733
0.984,0.129,0.011,-1.709,27.893,13.000
0.977,0.117,-0.022,-10.437,28.809,16.113
0.968,0.115,-0.063,-11.719,25.574,17.517
0.967,0.122,-0.071,-9.766,22.644,16.846
0.983,0.133,-0.059,-1.587,20.081,9.766
0.993,0.135,-0.046,2.014,21.912,5.554
0.992,0.144,-0.049,2.014,30.029,1.099
1.037,-0.009,0.196,-6.531,75.562,9.705
1.036,-0.018,0.165,-9.460,56.641,18.494
1.042,-0.010,0.148,-10.132,45.532,22.888
1.043,0.007,0.146,-2.563,34.363,22.522
1.043,0.024,0.155,4.272,33.569,18.066
1.049,0.015,0.167,9.094,34.851,13.794
1.044,-0.030,0.132,5.920,39.368,14.832
1.035,-0.044,0.100,1.465,37.598,20.508
1.027,-0.041,0.082,-0.793,27.771,31.067
1.016,-0.001,0.071,2.380,25.146,31.616
1.015,0.015,0.065,12.207,24.597,25.818
1.015,0.027,0.078,15.137,24.353,23.132
1.019,0.028,0.102,11.475,24.353,22.644
1.012,0.040,0.098,7.385,26.245,24.170
1.003,0.056,0.073,3.357,28.381,26.550
0.998,0.094,0.057,4.272,28.137,25.513
1.007,0.103,0.067,6.165,28.076,22.583
1.022,0.086,0.070,5.676,28.137,17.761
1.019,0.071,0.050,2.625,26.672,18.799
1.012,0.064,0.034,-1.343,21.179,23.560
0.997,0.085,0.009,-0.854,19.714,24.109
0.998,0.101,0.009,3.235,17.700,20.996
1.019,0.116,0.052,4.395,18.066,19.531
1.021,0.117,0.064,0.793,24.048,19.348
0.994,0.123,0.011,-2.502,25.024,20.630
0.979,0.135,0.001,-3.296,20.752,20.691
0.946,0.166,0.005,-0.671,19.958,17.029
0.941,0.176,0.008,1.953,19.592,11.658
0.943,0.181,0.007,2.319,19.714,2.075
0.947,0.183,0.005,0.061,20.813,-1.099
0.986,-0.063,0.512,-25.818,112.976,20.874
1.027,-0.086,0.474,-22.217,110.779,17.456
1.036,-0.097,0.434,-23.743,100.891,19.775
1.048,-0.090,0.383,-27.527,91.980,24.597
1.048,-0.073,0.369,-33.386,76.721,32.349
1.041,-0.058,0.327,-32.043,71.411,32.776
1.036,-0.049,0.320,-25.696,61.035,32.166
1.021,-0.011,0.321,-25.269,56.274,32.104
1.018,0.002,0.314,-31.189,48.462,29.968
1.019,0.011,0.278,-34.241,44.983,27.832
1.018,0.004,0.257,-31.616,39.856,21.301
1.014,-0.019,0.219,-28.198,36.499,19.226
1.017,-0.023,0.220,-21.667,28.625,21.362
1.018,0.013,0.248,-19.043,28.503,23.010
1.020,0.025,0.254,-16.113,36.804,18.921
1.040,0.008,0.242,-16.724,41.809,16.418
1.043,0.004,0.212,-17.761,45.471,16.235
1.048,0.026,0.144,-18.311,43.762,20.569
1.054,0.039,0.135,-17.456,38.574,22.583
1.068,0.043,0.170,-15.991,28.381,25.208
1.072,0.042,0.196,-15.991,27.466,26.611
1.073,0.043,0.204,-15.259,35.583,29.053
1.050,0.054,0.143,-14.282,39.551,30.518
1.038,0.064,0.108,-10.193,35.889,33.630
1.010,0.096,0.095,-7.507,30.945,33.936
0.996,0.108,0.098,-2.747,22.034,30.151
0.995,0.114,0.124,-0.427,20.752,27.161
0.991,0.121,0.129,0.610,26.489,20.447
0.998,0.086,0.118,-0.305,31.006,16.785
1.000,0.055,0.098,-0.916,35.645,15.747
0.842,-0.042,0.635,-10.803,129.517,-3.357
0.862,-0.042,0.621,-15.015,124.634,-5.310
0.903,-0.050,0.607,-16.357,125.244,-6.104
0.911,-0.060,0.568,-12.817,127.686,-8.362
0.922,-0.065,0.491,-10.315,123.901,-8.240
0.941,-0.064,0.486,-12.573,111.023,-4.395
0.978,-0.049,0.484,-16.907,107.483,-1.770
0.991,-0.040,0.471,-21.118,109.314,-2.747
1.014,-0.047,0.406,-19.897,112.000,-5.005
1.023,-0.060,0.353,-15.198,104.919,-3.174
1.055,-0.070,0.308,-14.771,94.543,1.282
1.071,-0.061,0.308,-18.860,76.355,9.888
1.095,-0.040,0.325,-20.142,73.242,10.742
1.099,-0.040,0.313,-19.958,76.050,7.080
1.096,-0.063,0.224,-18.616,75.684,6.042
1.094,-0.073,0.179,-13.245,61.951,9.766
1.092,-0.057,0.155,-9.583,51.514,12.207
1.103,-0.051,0.180,-0.488,39.124,11.169
1.138,-0.057,0.237,3.174,41.748,9.766
1.137,-0.054,0.241,4.517,48.767,9.644
1.098,-0.050,0.164,1.099,60.242,12.451
1.090,-0.057,0.124,-0.732,57.678,14.709
1.093,-0.065,0.108,-0.610,44.922,21.912
1.114,-0.084,0.139,1.099,42.053,25.940
1.118,-0.074,0.156,1.770,49.438,34.119
1.075,-0.011,0.118,-1.099,53.284,36.682
1.055,0.011,0.092,-8.545,50.781,36.804
1.031,-0.003,0.005,-8.240,46.021,36.682
1.029,-0.009,-0.015,5.981,30.884,39.490
1.036,0.013,0.045,13.489,26.489,39.063
0.800,-0.043,0.759,-5.981,157.043,-5.066
0.812,-0.051,0.668,-5.310,148.437,-2.136
0.841,-0.052,0.664,-5.249,136.841,0.977
0.906,-0.047,0.687,-14.038,114.014,11.169
0.928,-0.050,0.680,-19.409,107.910,14.587
0.946,-0.066,0.610,-18.494,105.774,14.282
0.952,-0.075,0.586,-14.099,104.065,13.062
0.961,-0.081,0.575,-11.230,95.947,17.273
0.976,-0.071,0.565,-15.930,91.736,23.437
0.977,-0.056,0.550,-26.428,88.379,33.081
0.967,-0.041,0.505,-25.452,91.187,31.616
0.953,-0.045,0.458,-13.611,97.473,24.353
0.937,-0.036,0.388,-10.498,93.750,25.330
0.940,-0.016,0.374,-15.930,77.454,31.494
0.973,-0.006,0.387,-18.616,72.937,31.799
0.993,-0.008,0.392,-17.029,81.177,27.954
1.000,0.015,0.350,-15.686,88.379,26.245
0.994,0.036,0.318,-15.564,92.224,25.513
0.989,0.048,0.281,-17.334,86.914,26.672
0.999,0.043,0.226,-15.564,80.688,27.405
1.009,0.043,0.219,-3.601,73.181,25.269
1.024,0.064,0.238,0.671,73.669,23.376
1.020,0.078,0.230,-5.920,78.430,23.071
0.996,0.096,0.149,-12.390,78.552,23.804
0.983,0.092,0.102,-12.573,74.524,21.973
0.950,0.088,0.029,-3.479,70.984,18.494
0.941,0.087,0.022,18.982,62.683,7.935
0.962,0.066,0.058,23.254,58.655,5.615
0.976,0.062,0.076,19.836,55.847,7.568
0.975,0.070,0.065,3.540,55.664,15.137
0.950,0.006,0.429,-13.733,116.333,1.038
0.980,-0.020,0.375,-14.526,110.229,-0.427
0.993,-0.031,0.358,-8.118,101.929,-0.732
1.010,-0.040,0.344,-6.836,97.534,0.854
1.005,-0.035,0.319,-8.362,87.952,3.357
0.995,-0.015,0.254,-7.324,82.275,1.343
0.997,-0.014,0.235,-1.038,72.876,-7.874
1.006,-0.041,0.194,4.272,68.848,-12.756
1.024,-0.060,0.204,9.766,57.678,-10.864
1.063,-0.070,0.259,7.141,54.810,-3.906
1.066,-0.055,0.253,-1.587,57.129,10.986
1.062,-0.012,0.228,-3.418,58.838,14.771
1.056,0.004,0.219,-1.038,63.171,13.611
1.033,0.011,0.186,0.488,64.392,10.986
1.023,0.008,0.170,-0.549,63.965,9.155
1.016,-0.001,0.144,-11.475,60.242,9.338
1.023,-0.010,0.136,-16.846,59.692,9.521
1.026,-0.021,0.121,-15.625,66.406,7.568
1.006,-0.042,0.045,-9.949,69.092,7.263
0.992,-0.043,0.010,1.160,62.073,9.094
0.979,-0.027,-0.014,4.333,56.091,8.667
0.991,-0.027,-0.000,3.113,51.208,6.104
1.011,-0.033,-0.011,-1.404,53.589,6.714
1.005,-0.034,-0.041,-10.742,54.016,10.437
0.991,-0.046,-0.085,-10.742,50.293,10.925
0.988,-0.054,-0.109,1.648,39.673,9.399
0.984,-0.052,-0.140,9.705,32.410,9.399
0.992,-0.046,-0.114,15.991,18.311,12.573
1.035,-0.032,-0.042,9.705,16.235,17.212
1.035,-0.020,-0.067,-10.925,14.404,29.541
0.939,0.025,0.601,4.822,151.611,-33.752
0.953,0.010,0.561,-4.089,135.315,-21.484
0.980,0.014,0.533,-9.460,125.183,-13.428
0.992,0.023,0.532,-11.292,116.516,-5.676
1.013,0.031,0.500,-8.179,118.774,-6.409
1.017,0.027,0.464,-2.563,123.962,-9.033
1.027,-0.003,0.385,-2.869,121.826,-7.263
1.031,-0.007,0.355,-4.822,116.028,-2.991
1.049,-0.006,0.337,-6.653,103.516,4.883
1.055,-0.010,0.330,-5.615,101.685,6.653
1.033,-0.004,0.276,-6.714,101.685,12.024
1.013,0.013,0.243,-9.216,98.755,15.503
0.998,0.027,0.213,-8.301,89.905,12.939
0.992,0.033,0.168,-2.625,86.975,6.958
0.995,0.032,0.159,8.728,83.862,-4.883
1.011,0.016,0.168,9.705,82.642,-8.911
1.023,-0.005,0.167,-1.953,80.872,-7.080
1.017,-0.025,0.102,-7.629,80.872,-2.563
1.009,-0.022,0.061,-2.197,78.247,2.075
1.019,-0.020,0.038,4.700,74.219,2.014
1.031,-0.021,0.045,7.935,65.063,6.409
1.033,-0.002,0.037,4.272,61.340,11.230
1.026,0.022,0.025,-0.732,56.152,16.479
1.018,0.061,0.002,0.854,55.237,15.076
1.019,0.059,-0.004,4.822,55.603,11.719
1.024,0.042,-0.008,11.963,55.542,8.301
1.034,0.007,-0.005,12.146,53.772,11.719
1.027,0.006,-0.016,8.484,50.781,19.592
1.017,0.006,-0.055,7.446,49.683,20.508
1.019,0.001,-0.070,7.568,46.814,21.118
0.973,0.026,0.312,-12.512,100.159,5.188
0.977,0.033,0.273,-7.690,107.239,1.160
0.969,0.030,0.220,-3.174,111.328,-1.648
0.971,0.012,0.149,0.549,102.417,1.099
0.977,0.017,0.141,-2.502,82.581,12.085
1.002,0.053,0.174,-2.869,77.332,14.282
1.016,0.064,0.189,-2.075,78.003,12.695
1.015,0.057,0.112,-0.916,86.792,7.202
1.008,0.045,0.064,-0.305,84.778,7.812
1.004,0.041,0.050,2.930,68.665,14.160
0.993,0.071,0.068,4.456,62.866,15.686
0.988,0.082,0.074,4.333,60.486,11.841
0.988,0.073,0.045,2.380,60.852,9.399
0.989,0.062,0.013,-0.732,57.861,10.193
0.978,0.077,-0.036,-0.244,53.833,12.085
0.973,0.093,-0.043,3.723,43.701,11.169
0.994,0.101,-0.010,4.822,40.344,8.667
1.016,0.087,-0.003,0.977,40.710,7.263
1.035,0.050,-0.057,-1.831,40.405,10.132
1.034,0.042,-0.078,-3.418,37.476,14.160
1.036,0.048,-0.094,-0.305,29.114,18.005
1.045,0.050,-0.089,3.967,26.367,16.663
1.059,0.049,-0.071,9.705,24.963,14.160
1.060,0.057,-0.046,7.507,26.306,15.198
1.043,0.069,-0.065,-4.272,24.231,19.714
1.019,0.088,-0.115,-7.141,20.691,21.118
1.007,0.099,-0.131,0.366,16.541,19.531
0.980,0.134,-0.129,5.432,15.137,16.235
0.979,0.146,-0.112,5.371,10.376,9.033
0.987,0.154,-0.102,1.831,8.972,7.202
1.010,0.045,0.297,-21.545,100.708,29.785
1.006,0.073,0.275,-18.555,101.318,26.794
1.005,0.068,0.204,-10.925,100.769,21.362
1.023,0.051,0.194,-2.747,88.562,19.348
1.045,0.054,0.171,-6.042,80.566,23.926
1.035,0.070,0.151,-15.564,65.979,30.518
1.017,0.097,0.126,-17.578,61.035,29.663
1.013,0.107,0.117,-17.517,58.289,26.978
0.996,0.118,0.079,-15.503,55.725,21.423
0.979,0.125,0.050,-13.855,52.917,19.592
0.964,0.126,0.019,-3.662,43.579,11.292
0.960,0.098,-0.001,3.662,38.269,5.676
0.982,0.079,0.034,9.644,34.119,2.258
1.010,0.064,0.061,5.127,37.842,5.737
0.997,0.071,0.022,-8.118,42.358,13.245
0.971,0.076,-0.049,-10.315,39.612,13.000
0.973,0.063,-0.062,-1.953,32.227,7.019
0.989,0.045,-0.058,4.028,29.724,5.249
1.001,0.042,-0.043,3.784,26.123,8.423
1.010,0.052,-0.051,-2.747,24.536,12.573
1.007,0.060,-0.062,-9.460,21.851,16.846
0.990,0.070,-0.092,-5.188,21.423,15.503
0.976,0.082,-0.102,7.202,15.137,10.071
0.975,0.097,-0.080,7.996,9.033,7.568
1.000,0.087,-0.046,4.944,4.456,6.287
1.030,0.071,-0.030,-5.371,8.667,10.559
1.019,0.078,-0.051,-8.423,13.245,14.465
1.005,0.095,-0.064,-2.869,18.433,16.235
0.974,0.136,-0.081,2.014,19.409,13.367
0.960,0.150,-0.091,5.249,14.893,6.470
0.752,0.054,0.716,-13.977,177.551,-0.610
0.778,0.049,0.688,-18.738,154.480,-1.221
0.867,0.032,0.699,-21.973,143.738,0.000
0.902,0.039,0.712,-26.184,140.503,0.366
0.928,0.044,0.656,-25.452,145.813,-3.357
0.934,0.028,0.601,-22.339,146.729,-7.690
0.953,0.014,0.538,-23.682,139.404,-3.357
0.965,0.021,0.530,-30.823,124.695,7.812
0.983,0.038,0.506,-32.288,122.925,9.033
0.982,0.042,0.466,-28.748,126.038,4.456
0.986,0.034,0.386,-27.466,124.023,3.540
0.991,0.032,0.355,-27.893,118.225,5.249
0.996,0.033,0.331,-27.527,102.295,11.353
1.003,0.035,0.303,-25.635,95.642,13.855
0.999,0.037,0.289,-20.813,84.412,17.212
1.008,0.057,0.286,-19.470,78.857,18.494
1.021,0.075,0.289,-17.883,75.806,15.930
1.037,0.074,0.246,-16.113,78.369,12.146
1.036,0.061,0.208,-7.996,77.942,7.690
1.032,0.058,0.169,-4.822,72.388,9.033
1.031,0.064,0.166,-5.127,56.274,15.320
1.027,0.094,0.190,-4.944,51.758,17.029
1.023,0.114,0.198,0.549,57.068,12.146
1.014,0.118,0.169,1.526,60.364,8.911
1.020,0.105,0.156,-0.122,60.181,8.301
1.021,0.100,0.142,-5.920,55.847,13.611
0.992,0.121,0.100,-7.263,52.917,14.465
0.982,0.121,0.077,-5.432,42.908,9.460
0.988,0.092,0.064,-3.357,37.109,6.287
1.004,0.073,0.085,-3.540,34.485,2.197
0.808,0.111,0.726,-22.522,106.628,-0.671
0.826,0.114,0.675,-23.926,103.943,-1.770
0.860,0.107,0.635,-18.433,96.558,-4.822
0.882,0.115,0.634,-15.808,85.510,-3.113
0.923,0.138,0.687,-12.146,87.585,-5.920
0.922,0.150,0.680,-2.502,110.352,-21.729
0.892,0.148,0.566,-5.066,114.258,-28.564
0.902,0.120,0.505,-12.634,106.506,-31.006
0.956,0.074,0.468,-21.301,77.087,-23.621
0.968,0.069,0.480,-15.259,69.031,-20.508
0.965,0.072,0.491,5.249,69.580,-23.437
0.934,0.092,0.493,9.216,70.313,-26.306
0.929,0.090,0.485,-1.404,62.988,-28.503
0.944,0.057,0.475,-7.446,59.692,-28.564
0.955,0.037,0.470,-8.606,64.697,-28.137
0.952,0.029,0.432,-5.798,69.885,-28.687
0.950,0.025,0.404,0.061,75.562,-31.433
0.969,0.007,0.373,2.930,77.332,-31.738
0.974,0.006,0.357,4.639,80.750,-27.588
0.963,0.005,0.303,2.869,78.491,-23.987
0.964,0.004,0.289,-0.916,67.810,-15.076
0.984,0.007,0.280,0.122,63.538,-11.292
0.993,0.005,0.274,4.517,61.340,-9.277
1.009,0.004,0.294,16.907,59.937,-9.338
1.014,0.004,0.305,18.372,60.364,-9.460
1.018,0.001,0.300,8.240,62.195,-7.324
1.021,-0.005,0.261,1.282,63.293,-5.981
1.013,-0.005,0.235,-4.944,68.359,-7.751
0.989,-0.036,0.155,-1.892,71.045,-11.047
0.983,-0.065,0.115,8.545,66.528,-9.888
1.015,-0.085,0.362,-6.104,132.690,3.174
1.019,-0.074,0.309,-1.038,129.578,5.249
1.034,-0.069,0.313,-2.991,126.648,8.423
1.024,-0.045,0.341,-16.418,130.859,10.742
0.993,-0.067,0.218,-29.907,129.089,9.155
0.997,-0.097,0.100,-18.250,119.568,8.789
1.004,-0.078,0.121,3.113,109.131,11.169
0.976,-0.055,0.083,3.296,105.469,12.024
0.973,-0.058,0.045,-1.831,89.233,15.137
0.998,-0.057,0.041,-0.549,82.336,17.334
0.999,-0.047,0.045,2.686,79.224,19.165
0.964,-0.032,-0.004,7.812,74.463,20.569
0.943,-0.027,-0.044,7.690,67.322,21.484
0.917,-0.012,-0.109,7.141,43.152,22.827
0.929,-0.011,-0.096,10.559,30.090,20.935
0.962,-0.020,-0.034,19.165,19.653,15.625
1.000,-0.037,0.021,17.700,24.780,16.724
0.983,-0.031,-0.017,5.737,28.381,24.170
0.963,0.001,-0.073,0.793,22.522,25.696
0.973,0.013,-0.075,-0.610,9.583,20.813
1.008,0.010,-0.064,1.648,6.531,17.212
1.020,0.000,-0.049,5.798,6.165,13.489
1.021,-0.011,-0.043,5.005,7.446,13.733
1.014,-0.013,-0.055,-1.038,5.920,15.503
1.004,-0.010,-0.077,-3.906,2.808,16.602
0.999,-0.006,-0.083,-5.371,-4.700,18.066
0.978,0.019,-0.086,-2.563,-6.226,16.724
0.972,0.030,-0.079,5.432,-5.310,9.583
0.986,0.022,-0.056,7.568,-3.967,7.263
0.996,0.007,-0.056,6.042,-3.235,12.146
0.802,0.057,0.662,-25.818,134.155,0.610
0.839,0.027,0.601,-21.362,129.517,-0.488
0.864,0.027,0.592,-13.367,121.399,2.808
0.882,0.046,0.579,-13.062,118.835,4.272
0.889,0.049,0.569,-18.982,114.746,3.906
0.907,0.056,0.536,-22.644,114.807,2.930
0.908,0.057,0.499,-24.780,116.455,0.854
0.900,0.032,0.394,-23.254,115.051,-3.845
0.908,0.015,0.358,-20.752,108.093,-3.174
0.934,0.014,0.364,-16.785,89.172,3.540
0.944,0.027,0.375,-14.465,84.961,4.578
0.942,0.041,0.354,-11.292,88.867,-0.122
0.937,0.038,0.323,-13.062,90.881,-2.502
0.934,0.028,0.291,-20.264,86.365,-1.770
0.946,0.023,0.268,-24.048,81.299,1.343
0.946,0.035,0.246,-23.987,74.097,5.127
0.954,0.067,0.205,-19.165,70.984,3.906
0.963,0.089,0.204,-11.902,67.383,-1.648
0.982,0.096,0.183,-12.268,66.345,-4.944
0.994,0.085,0.157,-12.329,60.852,-8.301
1.011,0.071,0.124,-9.399,57.129,-8.423
1.009,0.064,0.113,-3.662,49.866,-7.751
1.006,0.059,0.100,-2.808,44.800,-6.836
1.013,0.062,0.104,-5.371,34.790,-5.859
1.026,0.052,0.114,-5.859,33.081,-7.507
1.033,0.039,0.109,-0.854,36.072,-12.268
1.035,0.016,0.079,3.540,38.025,-12.878
1.024,0.013,0.064,7.690,34.668,-9.583
1.018,0.013,0.063,6.226,29.785,-7.324
1.029,0.008,0.064,2.930,25.513,-3.235
0.899,-0.026,0.508,-8.118,151.489,19.165
0.904,-0.032,0.462,-18.738,131.409,22.888
0.932,-0.042,0.411,-19.775,120.239,24.048
0.944,-0.036,0.401,-14.526,105.041,24.292
0.976,-0.017,0.410,-11.414,102.600,22.339
0.988,-0.010,0.408,-11.658,103.149,20.630
0.991,-0.016,0.345,-18.311,105.835,17.456
0.991,-0.026,0.304,-18.677,105.164,15.442
0.996,-0.027,0.254,-15.442,98.511,15.076
0.996,-0.019,0.233,-17.273,93.506,17.029
1.001,-0.007,0.227,-25.269,82.214,18.494
1.012,0.023,0.225,-28.564,79.956,17.334
1.010,0.033,0.209,-31.128,80.811,13.855
1.006,0.039,0.158,-30.945,81.360,12.939
1.000,0.037,0.112,-28.015,75.500,13.550
1.002,0.031,0.053,-25.330,67.810,15.442
1.009,0.041,0.056,-17.761,54.626,19.165
1.031,0.076,0.081,-12.512,53.040,18.250
1.046,0.096,0.097,-3.723,57.617,11.780
1.064,0.095,0.088,-2.380,60.547,8.606
1.069,0.065,0.056,-2.258,56.641,9.644
1.081,0.028,0.040,-2.197,51.147,14.587
1.081,0.033,0.054,-3.174,48.035,22.644
1.061,0.058,0.054,-3.967,51.697,22.705
1.050,0.059,0.038,-5.066,55.725,20.569
1.044,0.049,0.018,-7.874,61.279,14.832
1.041,0.009,-0.046,-7.141,63.049,12.939
1.037,-0.011,-0.083,1.770,63.477,13.611
1.005,-0.010,-0.123,5.676,60.974,17.212
0.982,0.010,-0.137,4.700,49.927,23.682
0.754,-0.041,0.790,-9.277,170.105,9.033
0.795,-0.026,0.812,-6.592,166.260,9.827
0.836,0.016,0.793,-13.489,173.889,8.789
0.839,0.023,0.757,-23.743,179.199,6.042
0.856,-0.050,0.611,-40.894,178.711,-0.366
0.889,-0.077,0.562,-38.147,169.861,1.282
0.933,-0.041,0.557,-18.799,153.931,9.888
0.929,-0.023,0.538,-13.184,152.466,10.986
0.930,-0.027,0.453,-15.381,150.269,8.423
0.940,-0.027,0.419,-19.043,147.217,9.399
0.940,-0.020,0.388,-26.489,139.465,14.099
0.934,-0.028,0.323,-27.161,134.216,14.404
0.933,-0.043,0.281,-22.156,119.385,15.564
0.933,-0.054,0.195,-17.334,107.788,17.700
0.948,-0.038,0.196,-6.165,88.013,20.081
0.958,-0.010,0.191,-3.235,84.229,19.226
0.953,-0.010,0.160,-5.188,70.801,19.165
0.966,-0.001,0.144,-6.409,58.655,21.179
0.972,0.018,0.155,-2.197,43.518,22.522
0.964,0.048,0.155,3.296,41.321,18.677
0.973,0.050,0.168,14.709,45.044,5.005
0.993,0.038,0.175,14.221,50.720,-0.366
0.994,0.014,0.137,1.648,55.664,-1.221
1.012,-0.031,0.072,-2.991,52.673,3.601
1.014,-0.022,0.057,2.930,49.316,11.597
0.995,0.026,0.052,9.705,50.781,9.399
0.990,0.027,0.043,12.756,52.002,4.700
1.005,-0.018,-0.003,4.456,47.241,0.671
1.019,-0.039,-0.023,0.000,42.114,3.540
1.028,-0.044,-0.020,2.258,35.156,13.977
0.873,0.008,0.781,-26.550,170.410,13.000
0.878,-0.016,0.696,-29.480,173.401,10.803
0.866,-0.034,0.615,-35.889,163.940,15.625
0.865,-0.036,0.525,-39.612,150.696,21.484
0.877,-0.020,0.533,-44.373,133.728,28.503
0.889,0.020,0.514,-39.978,137.573,24.414
0.890,0.027,0.483,-21.545,156.738,5.005
0.888,0.004,0.380,-15.381,163.635,-2.869
0.884,-0.016,0.319,-16.052,156.616,-3.235
0.868,-0.045,0.194,-18.005,142.944,2.930
0.873,-0.036,0.177,-15.137,106.445,15.137
0.906,0.012,0.249,-13.733,96.313,16.296
0.914,0.027,0.251,-13.123,100.586,7.263
0.907,0.022,0.196,-9.827,107.117,-0.122
0.892,0.014,0.147,-4.150,107.178,-9.338
0.888,-0.013,0.069,-5.798,94.910,-8.301
0.907,-0.017,0.072,-12.512,67.566,0.732
0.932,0.011,0.105,-11.414,64.514,2.197
0.928,0.026,0.109,0.793,76.721,-8.972
0.921,0.005,0.043,4.639,80.078,-15.259
0.928,-0.017,0.002,1.648,64.819,-11.719
0.938,-0.027,-0.021,-0.488,53.955,-4.822
0.936,-0.011,-0.015,-0.061,43.640,1.465
0.936,0.018,-0.005,2.319,44.617,-2.136
0.936,0.017,-0.005,6.775,50.903,-13.733
0.939,-0.012,-0.022,5.005,50.903,-15.686
0.946,-0.024,-0.042,-4.822,40.161,-6.531
0.958,-0.008,-0.086,-7.202,31.189,0.488
0.964,0.011,-0.081,-3.845,15.625,7.812
0.988,0.017,-0.030,-1.465,12.451,8.118