aX,aY,aZ,gX,gY,gZ
0.619,0.116,1.744,80.688,93.323,-127.747
0.617,0.112,1.665,44.006,82.947,-138.977
0.574,0.079,1.374,30.518,83.801,-144.165
0.538,0.048,1.203,1.709,68.054,-145.142
0.479,0.008,0.988,-17.151,48.523,-131.348
0.408,0.018,0.925,-44.617,12.573,-101.074
0.272,-0.005,0.735,-39.124,9.155,-98.022
0.265,-0.035,0.673,-12.573,13.977,-96.802
0.3,-0.08,0.729,-4.944,10.559,-94.055
0.322,-0.094,0.806,-0.488,7.019,-79.529
0.35,-0.115,0.928,-1.526,10.01,-67.444
0.327,-0.109,0.955,1.953,16.052,-50.11
0.282,-0.121,0.987,11.169,14.893,-50.72
0.272,-0.146,1.025,26.55,7.568,-50.354
0.249,-0.178,1.09,27.466,7.202,-46.143
0.232,-0.188,1.09,15.32,13.977,-32.104
0.227,-0.231,1.08,7.141,15.015,-22.949
0.228,-0.255,1.095,0.671,12.085,-16.602
0.211,-0.294,1.076,-4.028,3.052,-17.029
0.198,-0.307,1.049,-3.54,0.549,-20.264
0.177,-0.321,1.048,-5.066,1.526,-15.564
0.168,-0.322,1.058,-13.55,10.681,-4.089
0.149,-0.318,1.034,-20.203,13.489,-0.183
0.141,-0.32,1.008,-26.062,13.611,2.136
0.147,-0.337,0.957,-26.428,13.428,0.671
0.162,-0.353,0.931,-17.334,13.611,-1.587
0.175,-0.378,0.899,-12.756,11.169,-0.122
0.18,-0.384,0.898,-9.521,7.141,2.136
0.185,-0.391,0.914,-10.071,0.366,8.728
0.175,-0.392,0.918,-12.207,-0.122,12.573
0.086,0.154,1.064,140.869,24.841,-8.24
0.171,0.208,1.287,158.142,77.698,-49.866
0.353,0.354,1.606,151.855,90.942,-72.693
0.484,0.421,1.745,129.272,86.243,-112.61
0.747,0.568,2.063,117.92,87.28,-128.235
0.803,0.652,2.095,83.801,93.445,-155.334
0.76,0.738,1.829,63.354,79.285,-164.246
0.722,0.719,1.688,30.518,26.733,-163.757
0.64,0.679,1.515,17.883,9.399,-153.809
0.559,0.684,1.434,-10.742,6.592,-138
0.449,0.57,1.173,-27.771,7.751,-133.85
0.439,0.476,1.007,-48.95,-5.371,-113.953
0.418,0.375,0.758,-46.936,-12.207,-100.22
0.38,0.38,0.722,-27.527,-12.085,-83.435
0.347,0.357,0.771,-18.433,-6.653,-82.031
0.343,0.322,0.791,-7.385,2.93,-74.524
0.342,0.23,0.802,-4.517,2.136,-64.941
0.333,0.187,0.825,-2.991,-2.869,-53.772
0.294,0.138,0.94,3.418,-13.672,-35.767
0.284,0.129,1.016,8.301,-14.404,-30.884
0.29,0.122,1.091,7.263,-5.798,-25.208
0.288,0.103,1.086,0.366,-2.808,-22.217
0.289,0.077,1.083,-12.146,-6.47,-14.282
0.279,0.058,1.119,-14.893,-7.446,-10.254
0.27,0.034,1.111,-19.348,0.305,-7.568
0.267,0.011,1.065,-22.339,5.066,-8.423
0.267,-0.017,1.017,-24.292,9.705,-8.85
0.262,-0.059,0.977,-22.949,10.071,-7.568
0.257,-0.074,0.985,-19.592,8.972,-3.906
0.236,-0.084,0.997,-17.7,8.545,-2.502
0.014,0.096,1.015,0.793,-2.747,0.549
0.021,0.086,1.012,0.427,-3.601,-1.404
0.025,0.077,1.009,0.488,-2.014,-1.587
0.027,0.059,1.004,-0.61,-1.16,-0.793
0.024,0.05,1,-1.77,-0.427,0.671
0.015,0.036,1,-0.305,-0.488,1.038
0.008,0.015,1.008,1.709,-0.061,1.221
-0.01,-0.075,1.025,3.418,3.784,2.93
-0.02,-0.155,1.042,1.77,5.92,5.798
-0.026,-0.267,1.079,-4.7,9.705,16.418
-0.008,-0.584,1.154,-9.644,15.93,22.644
0.003,-0.75,1.136,-21.79,38.696,37.415
-0.043,-1.091,1.032,-29.663,47.241,49.866
-0.104,-1.292,0.987,-51.086,40.71,87.463
-0.247,-1.699,0.929,-61.829,25.879,106.506
-0.289,-1.864,0.895,-80.811,8.301,127.014
-0.268,-2.149,0.814,-83.008,23.682,129.944
-0.292,-2.138,0.743,-82.153,82.886,136.047
-0.446,-1.761,0.453,-87.097,88.684,136.841
-0.481,-1.46,0.366,-67.688,60.913,123.962
-0.464,-0.74,0.393,-35.217,70.984,105.347
-0.445,-0.367,0.454,58.533,123.84,31.006
-0.309,0.227,0.691,98.206,127.502,-11.536
-0.185,0.441,0.917,153.992,60.852,-92.773
0.248,0.644,1.704,181.091,32.593,-140.808
0.594,0.745,2.142,210.632,54.199,-243.042
1.346,1.104,2.617,199.646,71.472,-285.461
1.596,1.228,2.537,169.922,70.679,-313.232
1.681,1.271,1.944,96.68,17.456,-311.279
1.572,1.252,1.627,70.862,-18.005,-290.344
0.048,0.093,0.991,0.427,-1.587,0.549
0.05,0.079,1,0.488,-2.075,0.732
0.047,0.075,1.002,-1.831,-2.075,2.197
0.038,0.046,1.007,-2.563,-1.831,2.869
0.029,0.027,1.018,-1.526,1.709,3.418
0.025,-0.035,1.022,-0.061,7.263,2.441
0.03,-0.092,1.01,3.845,20.752,1.526
0.036,-0.242,1.004,3.601,23.071,4.15
0.034,-0.326,1.01,-3.601,19.287,14.954
0.018,-0.523,0.995,-9.583,17.944,22.888
-0.005,-0.627,0.97,-23.987,17.7,43.884
-0.08,-0.81,0.913,-29.419,18.066,56.03
-0.127,-0.908,0.916,-30.273,26.55,75.867
-0.162,-1.199,1.005,-26.733,38.696,80.261
-0.123,-1.383,1.055,-13.733,80.017,80.872
-0.06,-1.575,0.971,-10.437,103.149,82.52
-0.061,-1.512,0.827,-33.203,105.591,105.774
-0.118,-1.221,0.566,-52.917,71.472,123.108
-0.132,-1.027,0.525,-54.138,-1.465,130.859
-0.147,-0.548,0.551,-28.992,-5.981,116.577
-0.197,-0.285,0.555,32.593,28.687,73.12
-0.25,0.17,0.631,61.462,38.635,47.302
-0.231,0.336,0.743,87.524,35.767,17.822
-0.036,0.482,1.13,129.089,18.433,-55.237
0.114,0.525,1.363,144.226,17.456,-90.942
0.499,0.668,1.87,162.842,31.982,-152.527
0.735,0.76,2.095,163.574,50.049,-182.373
0.934,0.855,2.185,129.15,85.815,-225.769
1.109,0.979,1.928,98.389,74.524,-229.736
1.096,0.996,1.716,43.579,5.249,-203.918
0.056,0.108,0.992,-1.465,-1.587,3.174
0.05,0.113,0.994,-0.977,-1.709,2.625
0.049,0.114,0.992,-0.244,-1.709,1.16
0.059,0.109,0.994,0.122,-1.587,0.549
0.064,0.105,0.999,0.732,-1.282,0.122
0.067,0.095,1.005,0.732,-1.038,0.244
0.065,0.091,1.005,0.488,0,0.366
0.058,0.088,1,0.427,0.549,0.183
0.056,0.088,0.994,-0.122,0.305,0.122
0.05,0.083,0.98,-0.854,-1.221,0.61
0.046,0.077,0.978,-0.61,-5.615,1.343
0.033,0.044,1.001,0.977,-6.653,1.221
0.024,0.02,1.031,6.226,-2.38,-0.183
0.025,-0.019,1.077,8.179,1.892,-0.977
0.019,-0.04,1.071,1.831,3.845,2.502
-0.017,-0.116,1.043,-4.211,1.282,6.165
-0.035,-0.183,1.042,-10.559,-0.061,11.902
-0.047,-0.43,1.076,-11.292,2.136,14.587
-0.032,-0.599,1.086,-14.526,12.146,24.231
-0.013,-0.944,1.067,-17.212,19.592,31.067
-0.018,-1.157,1.053,-20.996,28.32,38.635
0.04,-1.64,0.954,-34.485,42.908,57.983
0.094,-1.788,0.853,-45.959,42.664,75.684
-0.007,-1.731,0.643,-71.35,25.879,135.681
-0.148,-1.58,0.572,-73.12,18.127,159.302
-0.309,-1.09,0.514,-50.049,30.029,160.645
-0.344,-0.795,0.473,-37.231,42.908,149.475
-0.363,-0.288,0.385,-2.747,53.04,123.718
-0.367,-0.047,0.415,25.757,48.279,110.474
-0.368,0.17,0.533,93.323,31.677,67.932
-0.215,-0.458,0.925,-32.959,14.709,46.631
-0.234,-0.488,0.912,-30.64,11.414,43.518
-0.216,-0.503,0.852,-29.297,13.794,39.734
-0.201,-0.508,0.802,-21.912,21.851,31.799
-0.174,-0.547,0.74,-12.939,23.132,29.541
-0.167,-0.562,0.735,4.395,19.958,28.748
-0.161,-0.614,0.724,9.644,17.395,28.076
-0.124,-0.68,0.732,18.005,8.484,27.893
0.011,-0.753,0.794,17.212,2.197,33.691
0.036,-0.708,0.793,15.198,-5.981,46.387
-0.03,-0.471,0.733,24.353,-0.244,37.354
-0.049,-0.415,0.747,42.603,12.146,16.968
0.091,-0.453,0.939,86.426,36.865,-28.625
0.178,-0.453,1.044,94.238,43.091,-37.354
0.246,-0.411,1.11,74.036,40.344,-43.396
0.364,-0.235,1.164,64.087,33.569,-56.091
0.419,-0.148,1.195,79.59,33.325,-108.032
0.593,-0.059,1.318,91.37,40.649,-132.69
0.695,-0.016,1.387,85.693,34.546,-150.696
0.8,0.185,1.456,68.115,17.212,-145.081
0.756,0.318,1.408,43.518,-18.86,-137.939
0.678,0.531,1.308,53.223,-27.283,-146.79
0.676,0.603,1.325,84.534,-24.658,-169.678
0.701,0.647,1.375,84.29,-12.573,-174.744
0.702,0.655,1.342,47.668,24.963,-161.377
0.615,0.699,1.128,25.208,34.546,-145.203
0.577,0.703,1.028,11.597,26.917,-115.479
0.547,0.655,0.989,16.479,15.869,-102.234
0.535,0.622,1.036,15.747,-3.54,-74.768
0.474,0.555,1.073,6.958,-7.019,-61.096
-0.078,-0.526,0.968,-14.709,14.038,27.161
-0.053,-0.554,0.948,-10.132,18.372,28.137
-0.062,-0.547,0.91,2.197,29.541,26.611
-0.072,-0.54,0.86,5.859,31.433,26.001
-0.068,-0.528,0.853,3.845,22.644,30.273
-0.071,-0.485,0.814,4.7,16.418,30.762
-0.056,-0.468,0.805,23.254,10.132,22.827
0.031,-0.428,0.864,34.119,10.132,20.447
0.075,-0.374,0.91,43.091,15.442,21.118
0.117,-0.229,0.956,42.297,19.714,19.043
0.126,-0.171,0.947,47.058,26.733,2.808
0.156,-0.096,0.947,57.129,31.982,-8.423
0.189,-0.082,0.997,70.557,40.527,-20.813
0.286,-0.057,1.127,85.266,61.157,-43.518
0.336,-0.046,1.156,82.336,67.932,-52.979
0.399,-0.029,1.16,77.271,72.327,-74.768
0.521,0.039,1.181,78.674,73.792,-89.905
0.574,0.058,1.201,80.505,79.59,-129.883
0.693,0.044,1.225,74.646,76.172,-142.273
0.724,0.085,1.212,53.894,34.241,-137.329
0.715,0.211,1.198,50.354,3.235,-130.493
0.663,0.274,1.197,49.072,-33.813,-127.686
0.571,0.28,1.148,43.335,-33.508,-127.991
0.539,0.279,1.076,26.184,-26.672,-115.54
0.463,0.299,0.959,19.348,-32.654,-104.553
0.427,0.312,0.957,20.264,-48.523,-91.125
0.382,0.31,0.995,26.001,-47.18,-93.079
0.387,0.287,1.013,28.381,-25.269,-98.999
0.405,0.242,1.001,21.484,-10.681,-94.971
0.406,0.228,0.976,3.357,5.493,-78.613
-0.087,-0.69,0.881,-14.893,47.18,70.618
-0.098,-0.573,0.78,-13.611,43.213,72.693
-0.119,-0.412,0.699,-10.681,29.724,70.679
-0.115,-0.35,0.682,4.639,19.104,58.594
-0.093,-0.226,0.684,14.526,13.916,51.453
-0.073,-0.173,0.703,29.236,5.615,35.706
-0.011,-0.082,0.745,35.4,6.287,27.466
-0.004,-0.036,0.748,57.617,27.1,4.333
0.037,0.011,0.776,76.355,43.152,-13
0.089,0.046,0.836,112.549,65.063,-47.974
0.19,0.134,0.996,121.46,68.542,-65.002
0.234,0.142,1.065,120.483,65.979,-95.337
0.35,0.131,1.178,115.784,61.035,-105.103
0.43,0.149,1.258,111.267,55.054,-114.807
0.523,0.17,1.365,103.149,59.326,-146.423
0.69,0.189,1.505,95.093,73.181,-160.522
0.712,0.198,1.495,63.354,93.506,-165.466
0.674,0.191,1.395,45.776,89.355,-160.522
0.642,0.188,1.344,25.146,58.594,-150.757
0.606,0.165,1.302,20.02,39.063,-148.499
0.594,0.153,1.285,3.906,8.789,-136.292
0.51,0.179,1.205,-9.766,0.488,-126.221
0.46,0.18,1.133,-33.875,-5.615,-111.694
0.397,0.151,0.935,-37.537,-4.456,-108.765
0.391,0.137,0.839,-29.297,3.906,-100.098
0.374,0.136,0.68,-23.987,9.46,-91.858
0.349,0.139,0.616,-16.479,12.512,-72.51
0.302,0.149,0.576,-11.23,7.996,-63.599
0.294,0.152,0.61,-4.639,1.038,-55.542
0.27,0.167,0.729,6.287,-9.216,-41.443
-0.071,-0.383,0.86,42.175,-22.156,43.823
-0.078,-0.259,0.895,43.457,-8.85,39.368
-0.11,-0.021,0.911,42.419,-2.38,32.776
-0.126,0.077,0.883,48.401,6.836,6.042
-0.088,0.164,0.828,59.265,7.263,-11.597
-0.002,0.166,0.878,91.736,9.766,-43.945
0.211,0.211,1.181,101.746,21.179,-54.749
0.266,0.248,1.296,98.999,72.388,-74.89
0.31,0.227,1.251,100.952,98.022,-92.163
0.367,0.198,1.231,117.065,102.844,-128.845
0.507,0.182,1.382,116.516,81.726,-139.832
0.552,0.167,1.46,106.445,57.495,-148.926
0.601,0.119,1.484,84.351,30.701,-167.114
0.719,-0.005,1.404,78.308,32.41,-166.199
0.756,-0.035,1.321,64.819,51.819,-142.029
0.712,-0.022,1.128,55.786,57.8,-127.197
0.626,0.025,1.054,43.64,46.265,-109.436
0.469,0.07,0.911,41.931,37.842,-104.614
0.421,0.071,0.812,37.598,25.574,-87.891
0.348,0.055,0.67,34.851,20.02,-78.003
0.327,0.035,0.658,37.72,12.329,-64.941
0.288,-0.001,0.725,42.053,15.503,-57.434
0.254,-0.01,0.784,40.1,31.86,-32.043
0.123,-0.044,0.932,34.607,38.208,-19.104
0.066,-0.089,1.001,27.527,41.077,-10.498
0.077,-0.148,1.129,24.902,36.255,-13.062
0.131,-0.151,1.187,9.277,17.761,-17.7
0.21,-0.185,1.177,-3.235,11.108,-15.869
0.226,-0.218,1.113,-23.499,9.705,-5.981
0.273,-0.254,1.029,-28.564,10.376,-1.526
0.179,-0.183,0.736,59.326,41.87,18.311
0.221,-0.116,0.753,84.656,43.213,-7.935
0.298,0.018,0.835,95.459,43.823,-22.949
0.326,0.071,0.87,121.094,46.143,-52.307
0.395,0.121,0.987,140.747,48.767,-69.275
0.448,0.126,1.094,182.129,61.951,-110.107
0.611,0.115,1.37,192.749,73.059,-126.648
0.703,0.107,1.494,180.298,91.553,-137.512
0.789,0.137,1.714,164.49,94.299,-137.756
0.772,0.162,1.789,147.461,97.961,-139.709
0.67,0.16,1.783,107.666,120.178,-140.991
0.595,0.147,1.704,82.825,132.385,-136.902
0.519,0.144,1.601,27.405,126.343,-128.418
0.412,0.165,1.412,-0.183,104.126,-128.601
0.379,0.157,1.318,-52.734,49.927,-135.498
0.348,0.103,1.052,-73.059,28.931,-138.55
0.357,0.09,0.894,-91.431,7.812,-135.803
0.396,0.101,0.591,-89.722,5.432,-129.578
0.41,0.129,0.48,-67.444,6.348,-114.014
0.425,0.21,0.374,-51.819,5.737,-107.971
0.423,0.233,0.4,-25.024,-4.7,-92.59
0.393,0.202,0.583,-14.648,-11.169,-80.933
0.377,0.165,0.672,5.31,-9.216,-55.359
0.309,0.069,0.789,16.296,0.916,-42.725
0.265,0.02,0.853,36.743,24.719,-20.081
0.206,-0.067,1.008,42.725,30.701,-13.184
0.2,-0.115,1.07,41.382,21.057,-7.019
0.222,-0.193,1.162,36.743,9.827,-5.92
0.24,-0.221,1.186,22.339,-8.301,-2.869
0.275,-0.258,1.211,13.123,-13.733,0.549
0.083,-0.639,0.868,31.738,31.25,42.419
0.146,-0.564,0.856,41.26,37.292,41.748
0.19,-0.546,0.856,59.631,46.021,42.725
0.278,-0.431,0.919,67.261,45.959,44.861
0.291,-0.339,0.959,74.341,48.157,46.753
0.275,-0.182,0.971,79.102,50.842,42.358
0.26,-0.114,0.964,105.225,55.237,20.203
0.303,0.016,1.054,123.596,57.678,3.845
0.339,0.077,1.151,147.095,74.951,-23.987
0.349,0.185,1.311,148.437,91.492,-33.997
0.339,0.203,1.34,146.301,109.009,-43.945
0.367,0.184,1.386,138.794,124.329,-68.542
0.4,0.17,1.438,129.761,120.239,-81.787
0.424,0.167,1.493,92.041,102.234,-105.041
0.447,0.146,1.533,65.063,93.018,-115.784
0.466,0.112,1.502,3.967,63.782,-132.202
0.507,0.049,1.428,-26.367,41.87,-138.367
0.51,0.022,1.371,-74.951,14.404,-147.705
0.535,-0.043,1.136,-90.271,10.193,-148.254
0.561,-0.046,0.988,-105.591,5.188,-140.808
0.585,-0.004,0.692,-107.056,6.042,-133.911
0.581,0.027,0.567,-95.764,6.775,-116.882
0.543,0.099,0.434,-82.275,4.395,-108.582
0.511,0.136,0.43,-41.992,3.601,-94.543
0.406,0.192,0.547,-19.592,7.874,-87.219
0.345,0.196,0.643,15.381,24.78,-72.632
0.256,0.18,0.813,24.048,32.104,-64.697
0.224,0.153,0.881,28.198,37.598,-49.866
0.172,0.085,1.006,27.1,35.095,-45.898
0.169,0.053,1.068,16.296,21.545,-40.894
0.557,-0.046,1.307,99.182,50.781,-130.432
0.567,-0.061,1.334,74.951,55.359,-134.338
0.534,-0.069,1.343,61.035,59.753,-134.216
0.512,-0.071,1.333,29.846,68.054,-130.127
0.509,-0.089,1.257,12.695,68.176,-126.831
0.497,-0.1,1.19,-20.752,64.636,-116.272
0.447,-0.133,1.026,-34.058,63.477,-110.84
0.433,-0.135,0.951,-49.805,52.612,-103.882
0.444,-0.104,0.845,-52.551,42.236,-101.685
0.436,-0.09,0.812,-50.781,27.771,-94.299
0.396,-0.083,0.772,-47.852,25.696,-87.646
0.397,-0.08,0.765,-43.274,24.536,-80.139
0.448,-0.03,0.757,-28.503,19.226,-68.481
0.453,-0.009,0.758,-20.142,18.616,-61.523
0.439,-0.009,0.759,-7.08,25.024,-41.565
0.385,-0.034,0.794,-2.747,25.879,-31.189
0.36,-0.048,0.837,4.517,21.423,-15.564
0.321,-0.084,0.925,6.226,18.555,-9.094
0.309,-0.106,0.96,3.113,13.123,4.578
0.297,-0.14,0.999,-0.244,11.78,10.925
0.285,-0.153,1.002,-6.836,14.709,21.301
0.266,-0.182,0.976,-9.155,16.846,24.292
0.267,-0.201,0.952,-12.085,13.367,26.55
0.281,-0.236,0.921,-11.658,7.629,25.574
0.29,-0.25,0.925,-5.981,-2.869,20.569
0.31,-0.271,0.944,-3.479,-5.554,19.226
0.319,-0.281,0.948,-2.136,-6.897,21.301
0.333,-0.302,0.947,-2.014,-7.812,23.071
0.343,-0.305,0.953,-1.526,-11.902,25.696
0.364,-0.3,0.982,-2.014,-14.038,27.344
-0.114,-0.444,0.902,56.641,60.608,47.363
-0.048,-0.295,0.943,72.327,72.937,37.781
-0.01,-0.21,0.979,105.041,81.848,13
0.09,-0.076,1.099,120.422,82.031,-3.235
0.167,-0.01,1.178,136.536,86.853,-37.109
0.307,0.11,1.299,132.263,90.759,-53.284
0.352,0.129,1.314,117.249,96.802,-81.604
0.456,0.126,1.35,115.967,98.877,-99.06
0.524,0.103,1.365,121.643,104.797,-136.658
0.703,0.059,1.418,121.033,100.098,-149.475
0.791,0.068,1.496,114.075,87.952,-158.569
0.883,0.077,1.612,77.332,66.284,-170.959
0.857,0.058,1.574,52.673,66.711,-171.57
0.769,0.025,1.399,10.071,78.003,-163.757
0.754,0.024,1.308,-5.981,76.538,-161.011
0.707,0.065,1.099,-34.363,58.289,-158.936
0.665,0.079,0.95,-47.668,52.795,-156.189
0.617,0.088,0.78,-68.054,46.082,-139.832
0.527,0.13,0.505,-72.266,36.682,-129.211
0.499,0.163,0.428,-67.139,11.841,-115.234
0.467,0.207,0.38,-57.922,1.648,-110.291
0.471,0.21,0.401,-28.198,-11.963,-98.267
0.467,0.206,0.55,-14.038,-12.756,-88.135
0.431,0.185,0.657,1.587,-2.991,-59.753
0.339,0.11,0.896,5.127,1.831,-45.593
0.301,0.078,1.027,5.371,4.578,-25.269
0.243,0.012,1.204,1.709,3.601,-20.325
0.219,-0.018,1.233,-11.108,1.709,-13.611
0.19,-0.075,1.208,-18.127,2.563,-9.155
0.187,-0.092,1.18,-29.663,5.31,0.916
-0.003,-0.684,0.825,27.588,26.184,83.618
0.011,-0.566,0.811,38.818,24.597,77.209
0.055,-0.51,0.818,70.557,18.372,57.8
0.156,-0.38,0.89,88.013,19.897,50.11
0.174,-0.29,0.946,118.652,43.274,35.217
0.21,-0.128,1.066,127.686,62.134,23.926
0.26,-0.097,1.115,146.118,104.919,-10.132
0.426,-0.045,1.23,165.1,132.141,-32.227
0.511,-0.008,1.282,209.656,204.346,-77.332
0.582,0.123,1.267,214.783,229.797,-93.872
0.581,0.21,1.228,148.926,182.434,-117.432
0.63,0.257,1.274,93.872,114.99,-133.362
0.679,0.193,1.357,19.348,14.709,-169.861
0.765,0.032,1.464,8.606,12.878,-181.519
0.766,0.008,1.44,-0.854,62.439,-184.021
0.696,0.063,1.289,-14.465,82.581,-179.443
0.646,0.091,1.185,-59.692,87.28,-170.227
0.568,0.068,0.885,-81.543,78.247,-166.443
0.545,0.052,0.754,-104.248,51.941,-155.945
0.514,0.047,0.624,-104.675,38.757,-151.184
0.517,0.049,0.604,-99.121,27.588,-147.644
0.536,0.109,0.615,-74.768,16.113,-139.16
0.535,0.151,0.624,-59.937,18.372,-132.263
0.533,0.177,0.634,-33.691,26.428,-112.427
0.536,0.164,0.669,-25.146,24.719,-99.365
0.519,0.127,0.714,-12.634,16.541,-70.679
0.453,0.05,0.848,-4.822,14.954,-57.861
0.413,0.026,0.922,10.803,15.442,-36.499
0.361,-0.004,1.043,14.587,14.526,-28.87
0.345,-0.027,1.073,12.024,6.165,-19.531
-0.023,-0.786,1.011,-2.93,4.822,63.477
0.047,-0.804,1.016,0.366,0.61,64.88
0.103,-0.701,1.039,6.042,9.521,71.228
0.094,-0.614,1.02,12.512,37.354,76.721
0.025,-0.445,0.912,17.273,48.767,76.538
0.009,-0.373,0.87,23.193,53.345,74.158
0.024,-0.236,0.865,35.706,41.87,61.829
0.069,-0.175,0.878,39.856,30.823,52.856
0.116,-0.097,0.897,45.41,9.46,40.161
0.125,0.092,0.953,48.767,8.362,31.494
0.113,0.152,0.959,67.383,32.776,-6.409
0.129,0.201,0.936,81.726,47.852,-28.381
0.15,0.232,0.945,109.558,60.486,-63.599
0.195,0.294,1.024,120.605,64.575,-79.468
0.227,0.309,1.076,128.662,82.703,-111.633
0.319,0.296,1.145,123.901,90.332,-126.77
0.351,0.291,1.161,104.248,94.421,-148.682
0.394,0.248,1.171,92.529,93.811,-157.288
0.421,0.202,1.157,67.444,83.069,-171.02
0.503,0.108,1.136,54.871,72.876,-176.025
0.539,0.08,1.119,31.921,57.983,-177.185
0.571,0.056,1.037,22.827,55.115,-173.157
0.568,0.041,0.981,9.705,49.072,-158.569
0.541,-0.014,0.916,6.531,42.603,-149.17
0.537,-0.01,0.922,6.226,33.569,-140.808
0.534,0.048,0.95,8.728,19.104,-125.61
0.507,0.061,0.946,8.545,18.616,-114.197
0.465,0.066,0.932,4.822,31.189,-80.994
0.367,0.074,0.896,2.93,40.161,-63.538
0.319,0.073,0.883,1.099,48.767,-36.987
0.021,-0.607,0.946,0.366,47.791,80.383
0.077,-0.387,0.903,13.611,55.237,74.28
0.096,-0.259,0.863,35.583,52.612,60.608
0.108,0.011,0.83,42.725,40.833,52.856
0.102,0.132,0.854,58.96,15.32,28.564
0.107,0.323,0.965,71.35,13.184,10.864
0.119,0.4,1.049,94.238,29.724,-34.18
0.163,0.448,1.199,99.67,41.931,-56.58
0.193,0.439,1.25,101.379,58.655,-97.168
0.304,0.393,1.339,100.586,60.303,-118.225
0.391,0.368,1.385,89.661,49.133,-150.513
0.521,0.371,1.457,77.209,41.809,-159.79
0.542,0.37,1.445,61.646,37.781,-166.687
0.554,0.34,1.349,34.18,30.701,-176.025
0.547,0.331,1.302,25.146,24.78,-177.673
0.536,0.325,1.248,7.446,20.874,-175.171
0.533,0.294,1.069,-2.625,20.569,-171.204
0.542,0.281,0.946,-17.883,8.301,-158.752
0.532,0.278,0.732,-20.63,-3.357,-149.841
0.505,0.286,0.674,-13.611,-20.813,-133.545
0.454,0.298,0.646,-4.7,-24.719,-126.221
0.42,0.295,0.667,13.123,-22.644,-107.361
0.355,0.279,0.753,19.104,-18.066,-97.229
0.318,0.271,0.807,24.048,-2.93,-74.158
0.203,0.238,0.902,25.635,7.385,-62.561
0.151,0.218,0.959,26.306,23.926,-46.082
0.119,0.183,1.086,20.935,26.611,-39.612
0.122,0.163,1.127,-4.883,20.264,-25.024
0.099,0.088,1.122,-20.081,16.479,-17.944
0.092,0.034,1.092,-40.222,10.681,-7.935
-0.147,-0.662,0.945,-14.221,38.818,63.965
-0.128,-0.655,0.913,-10.193,51.88,64.148
-0.11,-0.646,0.887,-5.615,49.561,62.805
-0.072,-0.559,0.858,-1.038,43.64,60.547
-0.054,-0.505,0.858,12.146,33.142,51.392
0,-0.39,0.876,20.63,30.762,45.105
0.031,-0.338,0.884,29.114,31.067,38.879
0.089,-0.258,0.883,45.715,31.921,27.649
0.103,-0.203,0.891,53.406,30.334,24.048
0.104,-0.141,0.904,70.557,27.954,9.705
0.142,-0.064,0.943,83.862,29.663,-3.601
0.183,-0.042,0.988,114.624,42.236,-31.494
0.288,-0.007,1.107,126.16,52.795,-45.044
0.335,0.019,1.16,127.136,71.655,-65.735
0.387,0.042,1.187,119.263,76.172,-74.768
0.41,0.029,1.178,107.91,74.829,-95.642
0.466,0.008,1.218,106.079,73.242,-105.957
0.49,0.007,1.254,96.375,75.439,-121.826
0.501,0.019,1.293,84.045,76.66,-124.939
0.479,0.021,1.285,49.683,75.867,-126.465
0.456,0.011,1.216,32.227,71.35,-127.686
0.46,0.014,1.153,0,51.819,-128.662
0.443,0.04,0.991,-13.367,41.626,-127.625
0.417,0.053,0.921,-29.785,28.564,-122.62
0.36,0.071,0.833,-32.776,24.231,-119.507
0.34,0.087,0.821,-33.142,18.799,-116.699
0.333,0.107,0.829,-29.785,5.981,-111.938
0.341,0.106,0.834,-24.719,-3.845,-102.661
0.351,0.097,0.85,-22.217,-6.47,-94.299
0.342,0.089,0.876,-18.738,-5.859,-84.656
-0.1,-0.653,0.694,26.428,22.766,57.8
0.052,-0.483,0.806,25.391,13.672,56.396
0.1,-0.343,0.86,2.991,-0.122,57.251
0.069,0,0.817,-3.296,-2.869,48.767
0.058,0.106,0.802,9.583,1.526,28.076
0.174,0.149,0.944,72.693,31.372,-25.024
0.224,0.175,1.052,93.872,43.945,-42.053
0.25,0.211,1.15,94.238,55.664,-73.486
0.337,0.228,1.227,86.731,64.27,-91.675
0.394,0.222,1.213,78.613,86.304,-123.352
0.501,0.246,1.246,74.036,86.243,-136.719
0.521,0.268,1.316,58.594,69.824,-159.302
0.574,0.298,1.488,48.706,68.237,-173.828
0.612,0.293,1.519,23.193,67.688,-190.369
0.607,0.296,1.436,9.888,60.425,-190.674
0.59,0.289,1.368,-15.442,38.025,-184.875
0.568,0.238,1.189,-27.954,25.269,-176.697
0.559,0.238,1.107,-48.096,-5.066,-152.039
0.54,0.252,0.937,-53.711,-16.113,-140.503
0.532,0.251,0.844,-51.27,-8.362,-121.216
0.486,0.249,0.656,-46.692,6.042,-109.924
0.454,0.233,0.571,-30.212,32.166,-86.67
0.381,0.188,0.523,-19.836,33.997,-75.806
0.361,0.16,0.593,-10.681,25.269,-66.101
0.376,0.095,0.855,1.465,-3.906,-49.622
0.384,0.056,0.971,4.578,-8.057,-41.748
0.375,0.018,1.052,5.432,13.184,-24.109
0.315,-0.037,1.122,2.991,26.611,-15.564
0.286,-0.053,1.137,-4.7,37.415,-3.723
0.243,-0.065,1.147,-9.766,36.194,-1.526
0.045,0.655,1.275,146.912,87.952,-39.368
-0.042,0.702,1.311,177.063,128.174,-31.006
-0.292,0.814,1.269,184.143,154.114,-26.978
-0.324,0.635,1.166,137.329,142.822,-44.312
-0.18,0.449,1.188,93.079,98.572,-73.425
0.038,0.224,1.238,22.644,10.315,-146.667
0.511,-0.236,1.306,8.545,-9.216,-162.842
0.685,-0.339,1.349,3.601,-2.38,-138.367
0.807,-0.268,1.353,-1.404,17.761,-111.023
0.76,-0.186,1.211,-20.142,61.646,-50.232
0.511,-0.03,0.784,-24.292,74.341,-23.987
0.34,0.045,0.632,-12.695,78.003,11.536
0.036,0.142,0.578,0.427,73.608,19.653
-0.043,0.147,0.631,22.156,61.768,20.508
-0.049,0.061,0.734,25.146,54.016,14.709
0.009,-0.037,0.78,21.362,29.968,-1.831
0.201,-0.263,0.932,20.447,16.846,-7.568
0.295,-0.357,1.015,21.179,5.798,-7.019
0.406,-0.498,1.111,19.165,8.118,-0.549
0.413,-0.534,1.122,9.888,17.639,19.409
0.317,-0.506,1.063,7.385,25.33,29.236
0.243,-0.458,0.997,7.446,38.147,39.001
0.115,-0.359,0.875,6.042,34.912,37.72
0.076,-0.332,0.861,2.563,15.259,25.452
0.059,-0.318,0.901,1.953,7.69,17.029
0.084,-0.326,0.924,-1.709,-4.822,1.587
0.186,-0.375,0.948,-4.456,-12.146,-5.005
0.239,-0.397,0.962,-4.822,-20.142,-11.23
0.299,-0.411,0.985,-3.113,-17.273,-9.338
0.311,-0.405,0.975,-2.747,-6.104,-0.916
-0.493,-1.048,0.73,-12.085,71.228,113.647
-0.587,-0.751,0.575,-1.526,73.975,113.159
-0.588,-0.429,0.53,30.579,60.181,96.069
-0.533,-0.278,0.55,41.626,48.584,77.698
-0.343,-0.023,0.644,38.269,9.888,35.461
-0.218,0.077,0.703,37.598,-7.324,12.207
-0.088,0.16,0.752,68.42,2.258,-28.076
0.095,0.28,0.883,97.107,23.071,-40.344
0.152,0.318,1.005,147.4,58.838,-52.246
0.226,0.349,1.247,160.217,71.167,-54.504
0.257,0.341,1.322,177.856,93.689,-66.345
0.363,0.276,1.526,186.218,103.333,-75.806
0.417,0.25,1.667,179.687,102.356,-86.975
0.428,0.294,1.902,157.715,98.572,-91.003
0.395,0.316,1.906,89.6,115.479,-117.065
0.408,0.203,1.623,57.434,123.718,-129.578
0.438,0.137,1.457,8.667,105.103,-125.488
0.454,0.128,1.179,-11.658,86.06,-116.821
0.437,0.142,1.028,-50.781,45.227,-104.187
0.426,0.166,0.732,-64.392,23.132,-101.257
0.451,0.157,0.6,-61.646,-5.249,-87.463
0.449,0.133,0.389,-44.861,-1.77,-70.923
0.401,0.125,0.374,5.493,27.222,-35.828
0.305,0.088,0.542,28.442,38.513,-24.963
0.284,0.039,0.672,51.025,36.194,-12.329
0.252,-0.088,0.918,52.063,27.283,-5.859
0.238,-0.146,1.024,50.11,18.86,0.671
0.24,-0.255,1.16,37.048,11.23,10.01
0.254,-0.312,1.16,25.94,10.681,12.878
0.269,-0.359,1.136,6.409,6.775,16.052
0.092,-0.771,1.108,28.015,58.655,30.457
0.072,-0.92,1.089,26.306,64.758,62.317
-0.047,-1.239,1.085,26.428,58.044,77.087
-0.099,-1.407,1.103,27.1,28.32,87.646
-0.112,-1.663,1.174,19.592,9.644,89.05
-0.109,-1.694,1.166,-22.4,-11.169,106.75
-0.208,-1.602,0.992,-44.678,-6.836,124.939
-0.306,-1.479,0.867,-57.495,4.7,145.935
-0.48,-1.058,0.663,-55.542,22.095,169.189
-0.531,-0.818,0.609,-50.476,19.714,166.016
-0.509,-0.409,0.642,-42.603,4.822,142.639
-0.454,-0.222,0.685,-37.476,4.639,127.808
-0.286,0.099,0.662,-12.573,28.625,95.215
-0.195,0.244,0.627,7.629,44.495,78.247
-0.113,0.375,0.646,62.073,70.313,35.461
0.116,0.558,0.995,94.543,80.505,7.568
0.24,0.6,1.267,143.372,94.543,-35.461
0.365,0.666,1.749,159.363,107.056,-54.687
0.396,0.733,1.89,149.353,138.733,-103.333
0.477,0.795,1.878,113.77,135.742,-126.526
0.51,0.762,1.745,27.405,91.125,-157.227
0.528,0.686,1.358,-1.404,73.181,-167.908
0.526,0.666,1.119,-30.701,70.313,-169.556
0.498,0.618,0.685,-37.537,71.777,-160.095
0.475,0.602,0.557,-39.917,48.34,-136.169
0.455,0.582,0.496,-40.222,23.315,-123.718
0.451,0.561,0.521,-34.424,-8.301,-92.285
0.423,0.439,0.54,-24.658,-1.282,-74.646
0.406,0.362,0.552,3.845,31.86,-41.931
0.348,0.215,0.723,18.494,42.969,-28.381
0.281,0.58,1.678,123.779,173.95,-131.836
0.423,0.497,1.577,101.868,178.955,-150.33
0.461,0.479,1.457,31.006,153.198,-170.166
0.492,0.412,1.094,-9.888,119.995,-174.499
0.53,0.367,0.91,-60.974,44.495,-176.575
0.628,0.292,0.698,-63.416,20.752,-172.18
0.644,0.275,0.675,-40.71,16.663,-149.902
0.612,0.291,0.665,-28.564,24.597,-134.216
0.561,0.325,0.637,-18.433,33.02,-99.06
0.42,0.344,0.562,-19.226,28.198,-82.52
0.367,0.286,0.562,-20.569,16.235,-67.81
0.334,0.127,0.692,-6.897,-3.357,-46.387
0.315,0.064,0.796,8.667,0.671,-36.926
0.236,-0.047,0.973,33.875,25.391,-18.005
0.194,-0.095,1.056,38.208,31.555,-11.719
0.167,-0.137,1.118,32.898,20.691,-13.733
0.204,-0.217,1.163,24.902,6.836,-19.409
0.249,-0.264,1.174,1.709,-26.123,-23.56
0.338,-0.361,1.184,-8.24,-34.302,-21.973
0.37,-0.389,1.163,-15.869,-22.888,-13.55
0.396,-0.391,1.035,-16.052,-11.475,-7.446
0.381,-0.369,0.964,-12.512,2.441,5.127
0.312,-0.312,0.896,-9.216,4.761,8.545
0.276,-0.281,0.901,-2.625,2.197,7.812
0.225,-0.234,0.939,-0.916,0.122,5.859
0.212,-0.223,0.949,0.183,-1.77,4.211
0.206,-0.217,0.939,1.282,-1.953,3.845
0.218,-0.217,0.933,4.822,-4.7,2.686
0.248,-0.233,0.935,6.104,-7.263,2.625
0.26,-0.246,0.944,8.972,-10.315,3.967
0.056,-0.889,1.057,-19.714,22.156,76.233
0.081,-1.055,1.047,-7.568,28.748,92.163
0.093,-1.271,1.034,3.052,32.227,99.243
0.069,-1.286,0.991,21.362,32.532,109.497
-0.102,-1.205,0.831,30.273,32.166,116.699
-0.158,-1.178,0.78,47.18,34.058,118.164
-0.083,-1.106,0.76,48.889,28.381,113.342
-0.045,-0.996,0.751,23.926,-5.371,120.789
-0.117,-0.667,0.719,9.827,-24.719,126.587
-0.171,-0.493,0.707,21.912,-37.415,110.901
-0.166,-0.189,0.794,46.692,-30.273,92.529
-0.09,-0.052,0.897,87.769,0.793,62.195
0.024,0.183,1.024,94.482,15.32,54.749
0.031,0.271,1.072,104.065,24.048,50.232
0.048,0.396,1.365,114.746,29.907,48.34
0.061,0.458,1.536,132.324,84.106,35.828
0.025,0.555,1.679,133.24,121.338,24.109
0.012,0.571,1.703,123.047,149.109,-10.742
0.07,0.552,1.917,110.291,135.681,-33.936
0.113,0.526,2.023,88.989,119.751,-58.289
0.157,0.428,1.871,22.888,109.253,-97.473
0.176,0.359,1.637,-14.893,104.065,-108.337
0.197,0.305,1.393,-72.937,63.171,-118.53
0.245,0.275,0.992,-86.06,36.438,-122.131
0.278,0.277,0.813,-87.097,-3.845,-123.352
0.398,0.265,0.495,-78.491,-18.127,-121.46
0.479,0.247,0.39,-43.579,-27.893,-106.445
0.573,0.209,0.349,-21.301,-19.287,-90.332
0.556,0.186,0.386,19.653,13.489,-48.218
0.435,0.119,0.533,36.743,26.306,-29.175
0.069,-0.525,1.04,-5.432,3.54,52.307
0.041,-0.619,1.063,-7.385,0.366,60.669
0.02,-0.649,1.071,-12.329,-1.343,73.73
-0.028,-0.692,1.039,-14.282,0.061,78.125
-0.051,-0.722,1.024,-12.695,2.136,84.473
-0.059,-0.787,1.055,-9.094,4.211,85.266
-0.047,-0.823,1.082,-2.441,15.625,81.421
-0.005,-0.89,1.096,0,22.644,78.064
0.043,-0.925,1.08,8.484,36.804,73.059
0.173,-0.955,1.016,14.282,44.128,75.256
0.191,-0.909,0.96,28.931,51.331,89.905
0.086,-0.662,0.859,39.673,49.194,94.91
0.02,-0.542,0.851,58.655,32.471,87.769
0.021,-0.373,0.887,62.5,16.113,76.111
0.076,-0.284,0.909,66.406,-7.263,57.739
0.184,-0.134,0.917,71.96,-6.348,52.307
0.237,-0.088,0.941,103.516,7.812,41.26
0.363,0.025,1.132,122.864,20.63,33.081
0.4,0.11,1.238,137.207,38.818,25.452
0.345,0.306,1.364,147.461,80.994,11.353
0.304,0.388,1.429,145.142,89.355,-1.709
0.229,0.456,1.63,122.009,69.397,-39.49
0.183,0.458,1.731,106.384,62.195,-57.678
0.118,0.466,1.8,75.134,92.773,-88.257
0.011,0.461,1.708,55.359,119.69,-103.455
-0.047,0.46,1.545,8.972,151.55,-122.681
-0.102,0.444,1.073,-16.052,142.273,-133.667
-0.045,0.412,0.845,-67.2,44.373,-166.748
0.275,0.267,0.589,-85.51,-27.466,-183.777
0.491,0.182,0.547,-77.759,-100.464,-189.941
-0.128,0.635,1.305,146.362,108.887,-14.038
-0.061,0.646,1.449,167.236,91.614,-64.636
0.127,0.654,1.834,171.02,86.06,-80.505
0.189,0.667,1.961,156.616,109.192,-105.774
0.26,0.682,1.94,134.766,120.056,-120.605
0.29,0.665,1.816,59.57,93.262,-140.381
0.341,0.612,1.503,14.221,56.519,-144.714
0.363,0.58,1.359,-49.255,-2.258,-159.851
0.412,0.518,1.002,-64.026,-11.902,-161.926
0.426,0.49,0.787,-78.857,-21.057,-139.343
0.493,0.426,0.42,-78.369,-27.954,-124.634
0.549,0.362,0.279,-62.317,-32.898,-96.252
0.566,0.256,0.144,-44.373,-26.489,-76.477
0.488,0.235,0.219,10.376,1.465,-30.334
0.213,0.241,0.562,37.537,17.517,-11.292
0.082,0.251,0.747,64.575,28.625,5.371
-0.025,0.194,1.056,62.256,19.531,5.432
-0.018,0.141,1.161,43.091,-1.282,3.235
0.04,0.028,1.23,33.508,-4.272,1.77
0.084,-0.034,1.24,17.334,-6.287,-1.343
0.175,-0.121,1.269,8.545,-7.08,-1.953
0.203,-0.154,1.244,-12.268,-0.061,-0.244
0.212,-0.207,1.119,-20.996,4.333,2.319
0.192,-0.211,1.06,-27.71,10.925,9.583
0.135,-0.186,0.959,-25.452,14.648,12.39
0.111,-0.166,0.925,-11.597,18.127,14.16
0.109,-0.123,0.933,-3.906,17.517,13.245
0.113,-0.105,0.95,2.625,15.564,13
0.126,-0.072,0.984,3.113,13.916,13
0.139,-0.065,1.012,2.563,11.108,12.695
-0.144,-0.867,1.121,-15.381,5.92,109.802
-0.17,-0.829,1.104,-35.4,16.846,107.91
-0.221,-0.783,1.033,-41.687,20.874,107.544
-0.237,-0.749,1.021,-30.334,27.71,98.633
-0.226,-0.603,1.029,-16.907,33.203,89.6
-0.202,-0.501,1.058,3.235,51.208,67.627
-0.159,-0.315,1.037,2.441,59.814,57.861
-0.146,-0.238,0.965,-10.742,52.246,46.814
-0.113,-0.037,0.824,-16.602,32.043,40.649
-0.069,0.097,0.773,-10.193,-17.029,14.832
0.046,0.334,0.82,7.385,-30.029,1.099
0.097,0.419,0.917,59.265,-7.629,-16.663
0.112,0.546,1.138,85.815,22.766,-25.879
0.079,0.592,1.174,109.863,57.495,-42.236
0.071,0.612,1.17,144.653,100.403,-92.163
0.196,0.57,1.237,150.269,93.872,-113.037
0.29,0.541,1.319,140.442,48.462,-141.846
0.452,0.501,1.442,128.54,29.236,-151.917
0.518,0.468,1.428,93.201,13.428,-161.011
0.636,0.388,1.252,75.562,9.399,-158.691
0.65,0.37,1.163,50.171,1.099,-143.494
0.614,0.332,1.018,40.466,-1.099,-133.423
0.552,0.349,0.961,24.902,-2.075,-107.91
0.35,0.392,0.829,18.982,0.793,-96.863
0.269,0.402,0.754,14.709,4.15,-88.745
0.172,0.391,0.627,7.507,11.719,-73.059
0.125,0.36,0.592,4.272,17.944,-63.293
0.053,0.258,0.616,4.7,26.978,-46.326
0.04,0.205,0.698,8.728,26.306,-41.016
0.034,0.16,0.829,15.686,21.24,-34.973
0.026,-0.187,1.09,-5.371,13.672,12.207
0.03,-0.229,1.108,-7.385,15.564,18.372
0.055,-0.348,1.149,-7.935,18.066,22.034
0.057,-0.413,1.163,-9.644,21.362,27.344
0.013,-0.548,1.195,-10.437,31.25,41.809
-0.012,-0.612,1.22,-6.958,36.926,48.401
-0.034,-0.707,1.221,-4.761,43.884,56.946
-0.049,-0.756,1.174,-8.484,42.297,61.035
-0.065,-0.806,1.119,-11.841,27.466,71.045
-0.082,-0.882,1.103,-10.193,19.348,74.707
-0.06,-0.905,1.133,-13.672,20.935,77.759
0.014,-0.934,1.092,-21.729,30.396,81.177
0.02,-0.92,0.991,-31.677,38.574,94.36
0.012,-0.82,0.843,-25.818,31.799,98.206
0.025,-0.736,0.833,-7.08,17.029,96.741
0.047,-0.502,0.814,-2.014,13.489,94.788
0.032,-0.353,0.771,5.981,5.249,86.792
-0.02,-0.029,0.735,13.428,0.732,76.477
-0.03,0.118,0.749,37.109,1.343,44.556
-0.004,0.35,0.829,56.091,8.972,26.306
0.005,0.451,0.899,103.333,41.809,-11.475
-0.016,0.64,1.09,124.756,63.049,-34.851
-0.005,0.682,1.197,137.878,78.186,-61.523
0.067,0.702,1.432,133.606,77.82,-110.535
0.107,0.685,1.529,122.07,71.899,-130.554
0.145,0.656,1.585,95.642,63.293,-163.696
0.264,0.583,1.561,80.75,58.411,-177.246
0.35,0.548,1.495,45.532,48.462,-189.697
0.464,0.481,1.239,26.123,43.274,-187.195
0.492,0.449,1.102,-7.08,13.855,-165.588
0.136,-0.402,0.892,-15.442,47.363,32.41
0.167,-0.174,0.7,-14.526,42.542,26.917
0.184,-0.081,0.627,-16.174,-24.78,13.977
0.265,0.075,0.77,-3.906,-61.707,6.226
0.298,0.204,1.051,51.331,-55.054,-10.803
0.3,0.252,1.159,85.571,-14.893,-19.47
0.301,0.309,1.255,137.024,70.129,-41.687
0.298,0.417,1.362,144.47,96.252,-55.359
0.297,0.435,1.398,131.714,99.121,-78.613
0.286,0.435,1.484,122.559,90.271,-91.553
0.287,0.43,1.506,106.995,83.923,-119.69
0.28,0.424,1.474,93.506,90.759,-128.235
0.275,0.392,1.38,49.927,106.384,-132.324
0.23,0.355,1.118,25.33,96.313,-129.822
0.218,0.359,1.024,-11.658,37.964,-135.254
0.267,0.345,0.882,-19.287,11.78,-141.418
0.316,0.328,0.803,-21.973,-9.949,-140.381
0.414,0.293,0.669,-20.752,-11.414,-131.348
0.444,0.272,0.634,-16.724,-10.132,-119.446
0.441,0.226,0.646,3.113,2.625,-92.59
0.414,0.2,0.705,16.296,13.733,-77.637
0.319,0.145,0.878,31.738,34.241,-44.25
0.26,0.116,0.947,31.616,39.612,-29.968
0.211,0.082,1.004,21.423,30.396,-14.282
0.174,-0.006,1.122,13.367,18.738,-11.414
0.177,-0.046,1.162,-3.601,1.099,-10.437
0.22,-0.13,1.183,-12.878,-4.333,-10.681
0.255,-0.192,1.175,-31.128,-12.39,-5.432
0.297,-0.264,1.144,-34.973,-9.888,0.61
0.291,-0.266,1.125,-30.701,8.301,13.916
0.146,-0.162,0.837,-1.099,1.587,62.988
0.142,-0.058,0.827,25.269,18.127,59.387
0.129,0.162,0.824,40.588,25.94,54.199
0.124,0.264,0.849,73.364,32.593,36.316
0.121,0.425,0.942,92.651,34.363,25.757
0.116,0.499,1.032,114.929,40.039,13.977
0.113,0.57,1.151,155.09,76.355,-24.841
0.118,0.647,1.325,162.048,101.44,-46.509
0.083,0.668,1.354,135.62,122.437,-71.655
-0.042,0.676,1.431,112.244,112.61,-85.327
-0.077,0.647,1.473,69.092,83.496,-124.512
-0.072,0.575,1.39,47.363,71.228,-140.869
-0.008,0.52,1.276,26.794,58.96,-154.724
0.118,0.444,1.152,-2.563,28.076,-177.368
0.443,0.296,0.908,-11.78,10.559,-180.481
0.575,0.247,0.806,-18.738,-22.156,-166.382
0.743,0.223,0.681,-18.005,-32.959,-152.1
0.768,0.233,0.646,-15.869,-30.212,-110.413
0.649,0.263,0.602,-10.864,-12.207,-86.609
0.534,0.272,0.615,9.705,33.081,-45.715
0.293,0.274,0.744,19.104,46.143,-31.555
0.187,0.269,0.844,24.292,42.969,-16.907
0.057,0.234,1.049,19.409,30.945,-15.381
0.06,0.196,1.136,10.986,16.602,-16.602
0.103,0.144,1.188,-9.521,-1.709,-18.555
0.211,0.031,1.163,-18.433,-3.845,-16.235
0.268,-0.027,1.129,-27.466,-6.47,-9.521
0.368,-0.092,1.086,-28.564,-7.507,-5.615
0.387,-0.112,1.071,-27.039,-1.587,6.653
0.355,-0.124,1.057,-24.109,6.348,14.221
-0.133,-1.011,0.825,-4.333,2.869,86.365
-0.11,-0.919,0.819,1.953,4.517,97.107
-0.107,-0.836,0.794,15.686,20.325,103.333
-0.108,-0.585,0.738,25.391,24.902,101.257
-0.125,-0.441,0.736,33.447,21.79,96.741
-0.133,-0.226,0.808,44.373,-2.319,78.674
-0.116,-0.107,0.87,55.237,-13,66.956
-0.002,0.32,1.074,98.694,3.113,36.743
0.074,0.553,1.227,123.352,30.457,18.25
0.135,0.652,1.386,147.034,89.355,-28.931
0.258,0.457,1.561,137.207,97.534,-52.49
0.305,0.355,1.613,96.985,55.908,-73.181
0.3,0.36,1.765,84.351,37.354,-74.829
0.23,0.414,1.797,73.853,57.922,-78.064
0.025,0.509,1.635,64.575,79.468,-81.604
-0.078,0.512,1.499,30.396,88.806,-96.802
-0.195,0.442,1.25,13,74.463,-110.352
-0.189,0.403,1.175,-8.667,31.799,-140.686
-0.113,0.324,1.131,-14.465,15.625,-153.87
-0.058,0.277,1.121,-23.682,6.226,-172.607
0.104,0.183,1.02,-28.625,9.46,-177.551
0.207,0.148,0.931,-36.621,9.888,-174.744
0.423,0.101,0.774,-37.537,2.93,-167.664
0.509,0.095,0.751,-29.419,-11.292,-143.005
0.585,0.091,0.786,-20.02,-9.46,-126.099
0.572,0.093,0.83,-1.404,12.695,-85.327
0.454,0.106,0.954,2.93,25.635,-63.538
0.351,0.12,1.009,-0.244,41.87,-26.611
0.164,0.13,1.054,-6.165,40.833,-16.357
0.113,0.123,1.043,-20.752,21.79,-5.859
