aX,aY,aZ,gX,gY,gZ
0.057,-0.866,0.451,161.804,-17.029,31.372
-0.003,-0.884,0.787,189.697,-50.354,75.012
-0.131,-0.745,1.474,218.262,-14.648,86.731
-0.042,-0.707,1.801,251.709,34.851,65.796
0.56,-0.916,2.648,304.993,90.393,-30.518
0.875,-1.033,2.912,295.715,88.44,-64.575
1.04,-1.006,2.92,207.581,30.701,-83.862
0.967,-0.803,2.557,176.819,11.23,-80.261
0.906,-0.789,2.4,160.645,25.452,-94.604
0.923,-0.915,2.356,153.748,33.936,-101.624
0.918,-0.935,2.37,111.938,29.846,-82.336
0.755,-0.804,2.196,83.801,21.484,-66.406
0.585,-0.72,2.006,36.56,4.761,-36.621
0.139,-0.605,1.549,21.667,-0.732,-24.719
-0.082,-0.578,1.335,8.118,-9.338,-17.944
-0.327,-0.557,1.042,6.531,-10.132,-22.4
-0.316,-0.543,0.98,12.146,-3.174,-37.354
-0.129,-0.614,1.018,16.052,0.854,-43.884
-0.05,-0.659,1.017,8.24,3.052,-46.448
0.031,-0.663,0.927,0.61,1.221,-42.175
0.087,-0.662,0.91,-5.981,-8.301,-28.625
0.164,-0.703,0.87,-6.897,-13.611,-21.545
0.16,-0.705,0.821,-6.958,-21.729,-11.047
0.12,-0.687,0.754,-3.052,-24.963,-2.93
0.104,-0.707,0.728,1.282,-36.194,10.132
0.048,-0.686,0.741,-0.488,-38.757,4.089
0.039,-0.672,0.773,-1.404,-35.95,-7.568
0.059,-0.672,0.801,-3.479,-30.762,-10.315
0.078,-0.676,0.767,-9.583,-18.433,-14.221
0.107,-0.664,0.703,-8.85,-13.489,-14.404
0.153,0.351,-0.575,-58.533,-59.631,-43.152
-0.041,0.273,-0.596,-53.345,-7.996,34.546
-0.73,-0.103,-0.979,-115.051,154.114,190.369
-0.977,-0.212,-1.272,-117.065,244.446,151.672
-0.808,0.016,-1.473,-31.372,214.966,36.255
-0.624,-0.187,-1.207,172.241,26.001,-138.977
-0.466,-1.256,0.097,233.398,-60.669,-123.718
-0.5,-1.608,0.776,284.485,-37.537,-22.461
-0.285,-1.645,1.478,298.828,16.785,-15.198
0.097,-1.674,1.947,419.739,57.8,-63.232
1.375,-2.655,3.862,485.352,90.637,-100.83
1.965,-2.889,4,314.88,144.714,-165.222
2.033,-1.614,3.534,162.537,107.3,-155.884
1.759,-1.105,2.896,75.745,58.899,-114.563
1.443,-1.007,2.17,59.937,52.673,-36.987
1.255,-0.941,1.981,58.716,60.852,-10.864
0.447,-0.62,1.583,34.668,-1.465,53.345
-0.007,-0.505,1.389,25.635,-33.02,79.895
-0.345,-0.442,1.225,22.705,-30.151,81.36
-0.549,-0.443,1.014,26.062,-7.935,55.603
-0.439,-0.493,0.972,28.564,35.889,-15.32
0.039,-0.639,0.991,23.01,38.574,-43.457
0.272,-0.708,1.01,8.24,15.015,-66.223
0.464,-0.806,0.956,1.831,0.916,-59.875
0.406,-0.8,0.849,-10.193,-36.377,-30.457
0.203,-0.704,0.695,-9.827,-57.495,-20.325
0.146,-0.687,0.715,4.517,-52.551,-7.568
0.117,-0.721,0.807,6.409,-39.368,-2.258
0.095,-0.729,0.818,-6.042,-32.227,2.808
0.026,-0.696,0.797,-12.024,-27.527,2.502
-0.08,-0.131,0.045,6.47,37.17,25.391
-0.081,-0.041,-0.081,-0.427,52.49,34.18
-0.082,0.174,-0.445,-18.738,47.424,26.245
-0.062,0.287,-0.675,-57.922,-0.305,-14.771
0.096,0.436,-0.922,-64.941,-24.902,-27.527
0.146,0.44,-0.955,-86.121,4.272,26.489
-0.363,0.208,-1.062,-119.995,71.594,95.337
-0.893,-0.024,-1.231,-212.097,240.784,179.687
-1.285,-0.17,-1.701,-203.735,282.898,114.685
-1.075,-0.037,-1.803,-21.667,160.217,-167.419
-0.757,-0.482,-1.492,91.125,2.136,-260.803
-0.716,-1.187,-0.861,295.837,-266.846,-197.449
-0.742,-2.458,0.908,379.517,-252.93,-93.262
-0.56,-2.704,1.561,517.883,-25.696,-17.944
0.461,-3.501,3.214,610.046,60.669,-85.327
1.151,-3.978,3.987,623.596,90.881,-218.75
1.852,-3.714,4,495.666,27.222,-213.379
1.95,-3.085,4,293.518,-85.388,-131.592
2.265,-1.851,3.939,231.079,-63.599,-104.614
2.283,-1.363,3.768,92.773,34.607,-26.489
1.372,-0.968,2.673,18.921,60.486,47.913
0.444,-0.914,1.852,-49.011,54.626,135.681
-1.393,-0.543,0.61,-110.291,-11.902,231.689
-1.791,-0.327,0.381,-95.459,-12.573,199.28
-1.172,-0.335,0.437,-27.344,86.304,25.574
-0.526,-0.532,0.516,0.244,127.319,-54.26
0.048,-0.729,0.58,26.672,105.225,-104.98
0.49,-0.861,0.705,31.311,64.697,-82.214
0.413,-0.828,0.78,25.208,2.014,-13.977
0.146,-0.801,0.872,17.029,-6.836,7.385
-0.344,0.046,-0.863,-109.009,100.159,125.671
-0.7,0.173,-0.957,-55.359,180.603,150.391
-0.697,0.215,-0.942,6.836,175.537,91.858
-0.493,-0.191,-0.57,140.869,43.579,-66.895
-0.437,-0.598,-0.093,190.063,-48.218,-87.28
-0.58,-1.053,1.069,242.249,-110.596,5.127
-0.625,-1.036,1.397,248.047,-85.022,56.274
-0.482,-1.151,1.768,311.096,-33.569,23.132
-0.237,-1.375,2.108,370.361,-4.7,-26.245
0.468,-2.06,3.181,449.28,67.932,-96.375
0.809,-2.265,3.273,416.016,96.985,-122.314
1.174,-2.042,2.668,278.259,57.556,-135.681
1.285,-1.961,2.568,252.991,24.597,-124.39
1.623,-1.737,2.702,226.929,44.128,-109.68
1.677,-1.466,2.682,188.66,49.805,-90.515
1.507,-1.183,2.516,87.158,-1.16,-5.432
0.547,-0.86,1.756,37.903,-21.362,45.044
-0.049,-0.753,1.288,-20.264,-13.794,93.872
-0.783,-0.535,0.745,-18.311,7.751,75.5
-0.783,-0.518,0.731,9.705,56.152,-11.719
-0.289,-0.664,0.87,15.137,65.918,-50.964
-0.014,-0.725,0.908,7.263,51.88,-77.942
0.306,-0.744,0.934,4.211,41.016,-66.528
0.34,-0.743,0.94,3.906,25.085,-26.306
0.249,-0.767,0.971,-4.944,8.301,-8.24
0.165,-0.777,0.949,-21.545,-13.184,12.024
0.007,-0.729,0.82,-25.33,-9.827,13.672
-0.016,-0.711,0.768,-25.818,2.747,4.333
0.016,-0.717,0.688,-25.818,5.188,-1.16
0.044,-0.721,0.655,-17.639,0.916,-5.737
0.028,-0.393,-0.211,115.967,-31.982,39.917
-0.066,-0.545,0.178,238.342,-89.844,99.06
-0.13,-0.819,1.274,289.001,-48.95,94.177
0.127,-0.877,1.877,367.31,114.624,22.278
0.989,-0.941,2.877,378.723,170.837,-23.071
1.25,-0.878,3.095,313.416,111.755,-48.523
0.961,-0.621,2.873,275.879,39.917,-33.264
0.692,-0.598,2.652,266.113,1.953,-40.283
0.705,-0.847,2.833,273.499,36.621,-62.927
0.808,-0.847,2.928,263,66.772,-81.116
0.943,-0.663,2.574,203.552,67.505,-95.093
0.952,-0.583,2.352,165.833,56.213,-94.666
0.894,-0.494,2.202,107.3,44.006,-67.505
0.534,-0.388,1.989,84.961,35.339,-38.513
-0.002,-0.407,1.568,31.067,20.142,11.963
-0.228,-0.432,1.341,7.202,17.395,19.836
-0.357,-0.431,1.186,-11.963,32.166,-5.554
-0.187,-0.411,1.179,-12.817,44.861,-30.457
0.023,-0.418,1.208,-24.231,49.988,-59.875
0.288,-0.493,1.046,-30.396,42.969,-57.19
0.287,-0.527,0.921,-26.733,10.803,-30.334
0.194,-0.524,0.852,-15.625,-2.747,-15.076
0.158,-0.518,0.902,0,-11.841,1.709
0.095,-0.546,0.925,-2.808,-13.062,1.343
0.071,-0.552,0.864,-13.428,-11.719,-10.315
0.124,-0.547,0.795,-13.123,-9.766,-17.273
0.189,-0.548,0.811,-4.15,-5.066,-23.193
0.276,-0.534,0.878,-0.61,-4.395,-21.301
0.284,-0.535,0.906,-3.845,-5.859,-12.39
0.239,-0.54,0.879,-8.667,-6.47,-9.155
-0.636,-0.07,-0.85,-190.796,99.06,126.831
-0.643,0.006,-0.892,-182.007,101.074,93.933
-0.379,0.119,-0.806,-91.003,43.579,-21.423
-0.257,0.084,-0.669,54.749,-35.889,45.41
-0.231,-0.201,0.111,130.188,-58.716,108.582
-0.318,-0.309,0.694,229.004,17.7,136.292
0.146,-0.511,1.659,252.136,109.863,105.347
0.7,-0.548,1.999,282.349,203.613,-8.484
1.425,-0.5,2.716,293.823,164.124,-53.162
1.413,-0.404,3.08,296.204,99.304,-65.491
1.067,-0.274,3.101,257.874,43.335,-34.79
1.019,-0.306,2.958,237.976,61.768,-53.772
1.106,-0.358,2.94,211.853,95.215,-113.403
1.145,-0.252,2.966,186.523,87.891,-110.962
1.003,-0.102,2.804,109.863,56.458,-70.74
0.739,0.009,2.278,71.838,46.814,-51.941
0.591,-0.013,2.012,18.677,24.963,-11.353
0.142,-0.115,1.589,6.165,12.756,8.423
-0.081,-0.172,1.439,-6.287,11.047,20.325
-0.212,-0.247,1.292,-9.033,19.165,7.568
-0.13,-0.256,1.255,-11.169,32.288,-32.471
0.121,-0.278,1.177,-9.888,30.884,-46.143
0.245,-0.29,1.144,-8.545,16.541,-39.978
0.336,-0.319,1.08,-10.315,6.897,-22.949
0.26,-0.338,0.99,-8.972,-12.085,5.859
0.1,-0.369,0.915,0.305,-15.747,10.132
0.075,-0.379,0.98,15.503,-10.193,5.249
0.104,-0.353,1.091,14.465,-5.981,-0.854
0.155,-0.34,1.118,5.798,-1.587,-11.719
0.283,-0.33,1.143,0.732,-3.357,-10.925
1.089,-1.279,3.361,359.192,-13.367,-89.233
0.966,-1.082,3.038,292.236,45.41,-98.083
1.161,-0.975,2.966,287.048,59.326,-97.107
1.231,-0.9,3.139,233.276,41.87,-71.899
0.969,-0.44,2.938,175.964,26.184,-51.025
0.761,-0.28,2.606,72.205,11.841,-6.775
0.346,-0.237,1.902,38.391,11.536,13.428
0.094,-0.267,1.616,4.761,11.902,56.824
-0.334,-0.319,1.272,0.549,15.808,60.303
-0.389,-0.336,1.218,-0.916,21.301,45.837
-0.333,-0.344,1.19,-9.216,39.673,0.427
-0.082,-0.357,1.084,-14.343,45.959,-13.367
0.02,-0.379,1.036,-17.761,29.114,-13.794
0.091,-0.438,0.976,-17.761,15.32,-6.653
0.081,-0.449,0.941,-11.292,-0.244,0
0.083,-0.449,0.929,-4.7,-1.892,-3.479
0.116,-0.467,0.943,0.977,-3.296,-9.277
0.177,-0.489,0.913,-0.366,-7.446,-7.507
0.189,-0.487,0.893,0.793,-16.418,-1.709
0.177,-0.497,0.897,4.761,-14.954,-2.747
0.156,-0.502,0.896,11.475,-4.089,-12.268
0.123,-0.518,0.884,9.888,-2.258,-12.939
0.124,-0.509,0.88,3.967,-9.216,-16.052
0.171,-0.49,0.918,2.014,-11.353,-19.836
0.203,-0.488,0.938,-1.953,-5.066,-25.879
0.228,-0.516,0.904,-4.761,-1.038,-26.306
0.214,-0.525,0.851,-5.005,1.465,-23.56
0.209,-0.522,0.837,-1.587,0.122,-20.569
0.221,-0.515,0.882,0.732,-3.113,-10.925
0.228,-0.482,0.931,-1.648,-3.845,-7.019
-0.045,-0.122,0.571,-6.836,3.967,12.024
-0.067,-0.119,0.424,-4.089,17.883,14.282
-0.089,-0.099,0.04,3.113,30.884,15.015
-0.091,-0.082,-0.165,18.799,65.491,19.226
-0.037,0.005,-0.562,9.888,74.219,15.747
0,0.094,-0.73,-10.925,68.726,6.287
-0.058,0.215,-0.922,-55.603,41.321,10.132
-0.19,0.183,-0.94,-74.829,38.757,40.649
-0.37,0.107,-0.898,-110.84,57.495,106.934
-0.581,0.048,-0.774,-110.962,62.744,98.45
-0.516,0.099,-0.694,-53.955,19.714,-6.653
-0.278,-0.07,-0.259,-9.888,-20.63,-40.344
-0.231,-0.247,0.134,76.05,-53.223,5.554
-0.207,-0.372,1.004,105.835,-37.415,41.138
-0.054,-0.372,1.292,156.494,17.334,40.649
0.492,-0.5,1.708,194.397,35.339,9.033
0.727,-0.653,1.947,237.549,-7.019,-27.71
0.697,-0.596,2.359,230.164,-41.016,-12.451
0.558,-0.497,2.542,225.22,-25.513,1.221
0.475,-0.642,2.595,219.299,4.089,-18.311
0.458,-0.695,2.408,194.336,38.33,-51.147
0.53,-0.791,2.182,195.312,41.992,-70.862
0.688,-0.87,2.252,192.322,49.927,-96.863
0.911,-0.823,2.319,171.814,48.218,-83.618
0.846,-0.686,2.22,117.554,13.672,-28.687
0.538,-0.469,2.048,97.961,-3.601,-5.127
0.356,-0.426,1.982,57.007,-14.526,27.344
-0.067,-0.359,1.673,30.823,-13.367,36.255
-0.238,-0.315,1.481,-4.333,3.967,22.339
-0.255,-0.306,1.303,-7.935,18.433,4.211
-0.053,0,0.956,6.165,-3.967,1.648
-0.06,0.004,0.957,8.118,-4.761,1.221
-0.072,0.001,0.965,9.46,-4.028,0.793
-0.076,-0.005,0.969,11.719,0,0.549
-0.081,-0.02,0.973,11.597,2.502,0.977
-0.082,-0.027,0.966,7.08,5.798,1.404
-0.086,-0.033,0.92,4.761,6.287,0.549
-0.084,-0.038,0.894,2.991,7.507,-1.953
-0.07,-0.042,0.841,2.808,9.216,-1.892
-0.068,-0.041,0.811,5.859,15.625,0.427
-0.065,-0.051,0.749,9.46,20.203,0.977
-0.057,-0.063,0.703,15.32,29.358,0.916
-0.019,-0.088,0.546,16.174,33.447,1.099
0.013,-0.087,0.45,19.226,39.307,3.052
0.053,-0.05,0.277,26.062,39.734,5.127
0.053,-0.041,0.202,48.218,33.752,4.211
0.02,-0.092,0.041,55.237,25.818,-0.916
-0.022,-0.142,-0.063,56.091,15.93,-6.714
-0.105,-0.148,-0.322,41.321,8.423,-9.155
-0.148,-0.054,-0.472,-10.193,14.954,2.197
-0.292,0.08,-0.811,-60.669,16.846,16.357
-0.42,-0.032,-1.031,-124.023,24.78,40.344
-0.743,-0.225,-1.537,-214.844,84.717,91.675
-0.794,-0.11,-1.768,-205.505,119.263,84.961
-0.54,0.119,-1.773,-57.556,73.547,-26.245
-0.332,-0.159,-1.187,73.242,2.197,-84.534
0.451,-1.875,1.227,380.432,5.066,-128.418
1.103,-2.508,2.117,435.608,74.463,-124.023
1.694,-2.096,2.541,321.045,-19.043,-68.42
1.411,-1.81,3.15,313.11,-143.555,3.235
0.279,-0.311,-0.126,-60.12,32.593,33.508
-0.296,-0.33,-0.28,-123.108,61.768,45.837
-0.262,-0.342,-0.521,-154.724,75.562,43.274
-0.202,-0.333,-0.59,-185.913,100.708,22.217
-0.067,-0.223,-0.593,-177.429,103.271,3.052
-0.02,-0.144,-0.515,-134.827,53.284,-46.265
-0.017,0.001,-0.279,-108.948,9.033,-55.481
-0.074,0.079,-0.186,-40.405,-66.04,-11.536
-0.148,0.121,-0.057,15.198,-88.623,18.25
-0.145,0.018,0.119,168.579,-68.787,37.048
-0.107,-0.352,0.876,240.295,-35.156,30.884
-0.002,-0.497,1.292,306.519,2.563,7.324
0.336,-0.745,2.204,324.28,6.531,-3.113
0.531,-0.906,2.694,352.661,18.005,-15.747
0.759,-0.92,3.359,349.915,36.133,-15.442
0.758,-0.793,3.346,283.813,70.435,-40.71
0.641,-0.549,2.786,236.633,71.533,-54.687
0.595,-0.496,2.564,174.072,66.162,-60.059
0.603,-0.444,2.424,151.978,65.613,-57.434
0.602,-0.382,2.319,92.712,51.025,-37.781
0.493,-0.27,1.956,64.453,39.001,-19.958
0.341,-0.25,1.769,32.104,24.536,17.09
-0.058,-0.209,1.483,27.527,22.156,22.888
-0.174,-0.219,1.431,27.1,22.644,16.724
-0.108,-0.282,1.415,22.4,29.541,-13.367
-0.005,-0.316,1.388,14.099,30.884,-23.682
0.123,-0.346,1.241,-5.981,27.588,-22.827
0.135,-0.368,1.168,-12.573,25.269,-15.442
0.125,-0.395,1.117,-16.479,16.541,-3.113
0.09,-0.44,1.046,-16.479,11.353,-1.77
-0.158,0.121,-0.477,-32.532,151.489,33.081
-0.323,0.052,-0.452,-67.993,153.87,31.799
-0.271,0.042,-0.538,-138.428,90.698,-23.01
-0.168,0.004,-0.544,-152.588,25.818,-52.124
0.017,-0.135,-0.328,-102.6,-71.35,-48.828
0.04,-0.135,-0.141,-38.147,-74.585,-16.602
0.082,-0.314,0.43,120.361,-57.312,47.485
0.247,-0.569,0.866,187.805,-67.2,45.715
0.47,-0.805,1.424,292.847,-51.453,34.973
0.691,-0.941,2.676,331.055,-2.38,46.631
0.67,-0.952,3.026,324.341,51.697,22.4
0.483,-0.917,3.107,302.49,29.358,-1.831
0.336,-0.849,3.1,266.357,0.793,-31.86
0.324,-0.734,3.044,242.249,30.09,-58.838
0.531,-0.678,2.936,174.622,100.891,-109.253
0.958,-0.479,2.626,140.442,105.164,-110.046
1.038,-0.372,2.435,79.285,65.308,-64.941
0.767,-0.203,1.96,54.626,39.124,-24.17
0.459,-0.164,1.75,26.245,2.869,47.119
-0.198,-0.113,1.527,19.043,-3.906,65.613
-0.41,-0.119,1.513,3.906,10.498,59.692
-0.431,-0.174,1.474,-7.874,22.4,29.175
-0.296,-0.212,1.372,-29.541,30.029,-36.682
0.036,-0.312,1.129,-32.41,24.414,-51.392
0.134,-0.352,1.053,-26.428,-2.441,-35.339
0.114,-0.379,1.001,-23.926,-17.151,-16.479
0.048,-0.372,0.99,-15.015,-24.292,6.104
0.011,-0.384,1.012,-8.545,-21.729,5.615
0.046,-0.402,1.042,-6.042,-20.935,-1.404
0.117,-0.391,1.039,-10.681,-22.278,-1.709
-0.415,-0.002,-0.598,-103.577,15.076,8.423
-0.311,-0.014,-0.603,-83.435,-15.381,0.061
-0.306,-0.035,-0.552,16.113,-41.077,4.7
-0.435,-0.195,-0.174,79.224,-51.086,18.066
-0.458,-0.362,0.206,199.951,-59.57,48.218
-0.226,-0.649,1.313,252.258,-26.062,51.941
0.056,-0.673,2.018,343.75,109.314,3.235
0.914,-0.859,3.494,359.863,152.71,-33.142
1.173,-0.904,3.621,239.197,98.328,-58.655
0.769,-0.405,2.548,176.331,40.527,-45.593
0.535,-0.349,2.323,197.266,20.02,-27.283
0.566,-0.606,2.823,215.393,42.236,-31.25
0.551,-0.545,2.928,154.907,47.607,-20.142
0.324,-0.193,2.571,106.079,40.1,-5.676
0.219,-0.102,2.343,43.03,43.152,6.287
0.059,-0.125,1.968,27.466,44.189,5.31
-0.049,-0.151,1.785,5.31,32.959,6.836
-0.219,-0.182,1.479,-3.113,28.503,6.531
-0.226,-0.186,1.384,-8.423,23.621,-7.996
-0.124,-0.219,1.256,-8.179,22.705,-17.883
-0.051,-0.262,1.198,-5.005,24.719,-26.794
0.082,-0.338,1.118,-5.554,19.958,-22.4
0.106,-0.347,1.056,-10.742,-2.014,-5.249
0.104,-0.355,0.976,-8.789,-9.277,2.563
0.11,-0.365,0.997,-0.244,-15.625,11.292
0.093,-0.385,1.041,-0.488,-16.174,12.939
0.057,-0.386,1.005,-5.615,-13.916,9.521
0.03,-0.38,0.946,-4.089,-13.306,3.54
0.054,-0.383,0.975,1.221,-12.207,-7.019
0.095,-0.379,1.047,0.488,-9.949,-8.667
0.526,-0.713,3.414,324.463,101.196,-13.306
0.618,-0.464,3.075,224.365,144.287,-88.989
0.601,-0.315,2.682,147.949,115.784,-104.675
0.698,-0.334,2.526,135.437,103.943,-91.553
0.7,-0.306,2.506,116.15,92.163,-70.19
0.375,-0.156,2.236,65.125,53.711,-16.968
0.138,-0.116,2.028,44.25,36.316,3.784
-0.065,-0.132,1.837,16.113,26.245,17.639
-0.32,-0.209,1.524,7.812,31.433,12.451
-0.367,-0.219,1.392,-0.854,37.964,-10.01
-0.311,-0.237,1.227,-1.709,37.842,-21.912
-0.207,-0.254,1.178,3.174,39.856,-37.292
0.029,-0.28,1.129,6.47,32.898,-36.743
0.09,-0.285,1.125,9.216,12.695,-22.949
0.106,-0.287,1.097,8.606,5.737,-15.625
0.09,-0.297,1.081,8.118,-1.343,-7.568
0.062,-0.332,1.049,7.996,-3.723,-7.996
0.06,-0.332,1.037,9.827,-5.31,-15.564
0.11,-0.318,1.072,10.803,-2.991,-19.348
0.152,-0.313,1.091,6.897,0.305,-19.958
0.179,-0.319,1.081,4.089,-1.221,-16.235
0.142,-0.332,1.053,-0.488,-6.836,-8.606
0.062,-0.339,1,-1.404,-8.179,-8.545
0.056,-0.339,1.017,0.061,-5.371,-14.526
0.074,-0.335,1.077,-0.916,-2.014,-18.005
0.082,-0.326,1.078,-6.958,3.418,-23.987
0.135,-0.31,1.048,-9.277,5.371,-25.94
0.177,-0.308,1.053,-10.559,5.493,-21.057
0.237,-0.312,1.118,-11.719,2.808,-13.977
0.242,-0.316,1.146,-18.25,-3.174,2.075
0.173,-0.242,1.153,186.035,53.528,19.226
0.43,-0.446,1.49,266.357,30.64,-27.161
0.551,-0.676,2.132,272.4,-4.7,-31.372
0.438,-0.671,2.36,265.259,10.498,-46.692
0.452,-0.729,2.533,259.338,57.068,-78.003
0.622,-0.793,2.509,239.258,107.788,-142.151
0.902,-0.785,2.551,225.525,104.98,-151.672
0.986,-0.701,2.598,176.636,95.703,-131.348
1.039,-0.402,2.453,144.836,84.717,-107.849
0.954,-0.262,2.297,97.9,37.048,-46.936
0.591,-0.19,2.028,79.895,17.151,-10.986
0.334,-0.215,1.894,38.208,-15.137,53.467
-0.245,-0.223,1.575,19.775,-22.827,64.941
-0.409,-0.239,1.464,-0.244,-3.906,39.124
-0.335,-0.326,1.326,-5.249,14.282,15.137
-0.209,-0.347,1.243,-11.353,30.334,-17.456
-0.02,-0.371,1.097,-11.23,25.635,-20.935
0.016,-0.391,1.047,-5.127,4.944,-13.611
0.015,-0.432,1.007,-1.038,-5.005,-8.728
0.009,-0.435,1.013,3.723,-9.277,-6.958
0.038,-0.426,1.047,2.808,-4.883,-10.132
0.071,-0.423,1.056,-6.592,0.244,-14.832
0.137,-0.422,1.015,-11.902,-2.258,-15.015
0.157,-0.431,0.993,-15.381,-9.033,-14.099
0.164,-0.46,0.965,-14.832,-9.949,-13.855
0.15,-0.465,0.954,-12.268,-7.08,-13.611
0.123,-0.445,0.943,-10.925,-5.31,-13.611
0.118,-0.428,0.951,-10.742,-5.066,-12.878
0.124,-0.414,1,-12.39,-5.066,-12.695
0.133,-0.411,1.026,-18.188,-2.625,-13.55
0.897,-0.251,1.736,214.905,95.276,3.967
1.149,-0.261,2.416,299.438,59.998,-19.165
1.271,-0.292,3.476,285.217,49.683,-15.381
1.096,-0.179,3.332,186.218,46.509,-10.864
0.7,-0.043,2.647,164.307,52.002,-23.804
0.712,-0.112,2.621,157.959,65.796,-64.087
0.749,-0.1,2.672,137.512,55.359,-59.692
0.622,-0.034,2.498,79.102,22.278,-26.428
0.269,-0.02,2.014,56.58,15.564,-11.414
0.094,-0.052,1.831,29.48,3.723,11.78
-0.101,-0.102,1.621,18.433,-0.244,14.465
-0.087,-0.136,1.539,-2.869,4.517,2.686
0.063,-0.16,1.369,-7.69,6.714,-5.005
0.093,-0.155,1.305,-6.104,2.014,1.343
0.067,-0.143,1.204,-3.479,-2.563,2.747
0.086,-0.154,1.156,1.953,-5.188,-5.554
0.174,-0.226,1.088,4.456,-3.113,-8.362
0.196,-0.242,1.067,4.333,-6.836,-3.967
0.164,-0.231,1.045,5.249,-11.536,-1.465
0.168,-0.243,1.093,10.559,-10.071,-5.615
0.209,-0.247,1.158,8.057,-4.333,-8.667
0.223,-0.241,1.114,-0.061,-1.221,-12.024
0.232,-0.244,1.06,0.793,-5.127,-11.169
0.232,-0.251,1.101,6.47,-9.766,-7.751
0.229,-0.272,1.211,4.15,-8.057,-6.653
0.208,-0.281,1.205,-11.78,-4.395,-5.859
0.163,-0.294,1.1,-18.555,-3.113,-6.592
0.158,-0.306,1.06,-21.057,-2.441,-8.179
0.147,-0.337,1.041,-18.616,-3.052,-7.996
0.135,-0.336,1.059,-10.498,-2.808,-5.127
0.404,-0.244,1.832,32.288,-23.437,37.231
0.303,-0.217,1.631,14.221,-37.537,42.114
0.174,-0.215,1.412,-6.531,-54.687,50.72
-0.051,-0.293,1.168,-2.441,-52.246,48.157
-0.109,-0.314,1.175,7.324,-31.921,30.518
-0.089,-0.302,1.169,7.08,-14.099,20.081
-0.023,-0.303,1.128,2.319,4.211,6.775
0.032,-0.314,1.021,2.563,2.808,5.432
0.041,-0.336,1.038,5.188,2.136,5.859
0.068,-0.335,1.076,5.859,5.615,7.08
0.08,-0.33,1.075,5.432,4.7,5.371
0.093,-0.338,1.058,8.423,5.188,-3.967
0.127,-0.352,1.035,11.658,6.836,-7.263
0.131,-0.346,1.05,12.329,-0.977,-6.104
0.135,-0.341,1.087,9.46,-7.446,-5.066
0.137,-0.343,1.088,2.808,-15.381,-2.625
0.099,-0.351,1.063,-0.122,-18.005,-1.099
0.068,-0.35,1.043,-2.808,-19.043,0.122
0.04,-0.338,1.055,-2.197,-17.883,-1.16
0.049,-0.341,1.086,-3.662,-13.306,-7.08
0.068,-0.34,1.086,-8.179,-10.864,-10.01
0.082,-0.34,1.076,-17.944,-6.897,-14.343
0.11,-0.338,1.043,-21.667,-5.188,-15.137
0.114,-0.331,1.016,-23.376,-3.845,-15.564
0.126,-0.33,1.009,-21.057,-3.174,-16.052
0.139,-0.331,1.036,-19.287,0.488,-14.465
0.158,-0.317,1.101,-22.095,1.709,-11.963
0.158,-0.307,1.128,-30.579,1.526,-4.883
0.131,-0.282,1.151,-34.302,0.61,-1.77
0.113,-0.276,1.152,-35.4,2.319,-1.343
1.173,-0.9,3.475,247.437,115.173,-86.182
1.26,-0.635,3.2,149.841,83.069,-76.111
1.142,-0.302,2.807,113.342,55.237,-42.725
0.867,-0.229,2.511,31.25,9.46,52.368
0.167,-0.28,1.785,-6.897,-4.211,93.567
-0.133,-0.354,1.506,-47.852,-14.771,127.808
-0.509,-0.48,1.238,-50.598,-9.705,117.981
-0.556,-0.5,1.135,-38.879,18.738,59.326
-0.33,-0.505,0.961,-26.489,27.954,27.893
-0.149,-0.506,0.956,-5.554,11.108,1.526
0.032,-0.474,0.985,-1.282,-2.747,5.249
0.036,-0.457,0.987,2.502,-15.198,18.188
0.017,-0.425,0.997,3.479,-15.198,19.958
0.034,-0.421,1.039,1.343,-10.254,10.437
0.096,-0.426,1.056,-2.93,-5.432,1.831
0.147,-0.441,1.027,-8.484,3.601,-12.451
0.251,-0.488,0.971,-8.606,4.211,-14.832
0.276,-0.502,0.95,-7.263,0.671,-10.681
0.269,-0.511,0.959,-6.897,0,-6.47
0.246,-0.504,0.976,-10.681,0.183,-1.282
0.169,-0.497,0.95,-15.259,-0.244,-1.709
0.125,-0.501,0.874,-20.264,-0.305,-4.028
0.09,-0.508,0.713,-21.24,0.366,-12.39
0.107,-0.506,0.718,-14.771,-0.366,-15.991
0.151,-0.479,0.852,-2.136,-2.197,-18.738
0.165,-0.464,0.902,-0.793,-1.526,-19.165
0.184,-0.459,0.9,-5.31,2.075,-20.203
0.195,-0.465,0.876,-7.446,3.723,-19.592
0.22,-0.469,0.878,-5.676,3.296,-14.954
0.231,-0.464,0.912,-3.479,0.671,-11.536
0.244,-0.926,3.344,329.773,-3.784,-4.517
0.28,-0.886,3.608,281.555,31.372,-21.545
0.405,-0.719,3.407,186.584,77.087,-65.369
0.863,-0.628,2.845,150.879,89.6,-93.75
1.114,-0.64,2.588,81.36,85.327,-100.22
1.321,-0.563,2.21,56.274,59.021,-70.251
1.133,-0.47,2.044,25.94,-6.409,16.785
0.363,-0.359,1.645,15.869,-22.4,49.194
0.036,-0.403,1.446,-3.479,-18.921,58.228
-0.278,-0.506,1.096,-10.254,-12.573,38.818
-0.242,-0.523,1.027,0.854,6.165,-10.254
0.034,-0.486,1.019,12.695,14.587,-23.682
0.147,-0.46,1.017,26.978,14.648,-18.799
0.268,-0.471,1.019,28.87,9.216,-6.287
0.274,-0.5,1.045,25.94,-7.324,23.926
0.157,-0.498,1.116,23.56,-10.925,33.142
0.077,-0.472,1.121,16.113,0.488,25.94
0.033,-0.428,1.053,10.925,9.827,16.052
0.081,-0.427,1.013,4.15,18.005,4.944
0.172,-0.462,0.982,3.784,16.663,4.7
0.181,-0.469,0.986,3.54,6.653,5.737
0.149,-0.476,0.972,3.113,5.554,4.761
0.127,-0.479,0.948,5.981,12.085,-2.197
0.103,-0.494,0.904,8.118,14.16,-6.653
0.112,-0.501,0.91,9.705,13.123,-10.498
0.136,-0.508,0.938,9.888,3.174,-16.296
0.194,-0.514,1.012,8.484,0.61,-18.921
0.218,-0.514,1.021,-0.488,7.263,-20.935
0.245,-0.507,0.939,-5.432,10.01,-19.409
0.244,-0.508,0.894,-6.165,6.531,-9.949
-0.452,-0.417,0.171,-29.175,-78.491,22.827
-0.477,-0.362,0.313,81.421,-9.338,20.325
-0.174,-0.399,0.647,153.503,43.274,-13.794
0.277,-0.636,1.066,298.828,114.075,-86.609
1.335,-1.246,2.352,333.313,110.046,-105.896
1.535,-1.328,2.682,279.907,30.518,-63.66
1.015,-0.938,2.359,241.699,-8.423,-18.066
0.636,-0.819,2.196,249.939,-20.752,7.202
0.417,-0.995,2.484,265.503,-2.502,-7.202
0.481,-1.004,2.726,221.313,17.761,-18.188
0.572,-0.689,2.726,170.898,22.461,-18.616
0.603,-0.557,2.536,94.91,34.485,-39.734
0.716,-0.522,2.272,76.782,36.621,-46.875
0.708,-0.526,2.175,36.682,21.423,-14.587
0.387,-0.514,1.765,11.963,11.963,13.306
0.188,-0.513,1.482,-17.7,8.85,46.265
0.018,-0.51,1.141,-17.7,10.01,52.551
-0.019,-0.509,1.111,-9.583,2.625,59.387
-0.154,-0.493,1.035,-8.301,-3.113,58.472
-0.2,-0.508,0.964,-7.019,-5.371,54.26
-0.217,-0.588,0.859,2.625,-1.221,43.274
-0.213,-0.595,0.869,14.465,-4.822,29.968
-0.123,-0.544,1.036,18.25,-2.747,20.569
-0.039,-0.518,1.125,18.372,1.953,10.498
0.112,-0.502,1.165,8.057,11.414,-6.287
0.154,-0.514,1.119,1.404,14.099,-11.658
0.176,-0.529,1.066,-5.798,14.893,-15.259
0.199,-0.532,1.072,-5.005,13.977,-13.916
0.202,-0.523,1.12,-5.31,14.648,-11.841
0.191,-0.502,1.147,-9.521,14.038,-12.512
0.963,-0.583,2.783,292.236,-30.09,1.099
0.686,-0.619,3.088,298.096,-16.357,15.686
0.568,-0.645,3.247,274.109,29.541,-22.522
0.672,-0.581,3.138,198.669,61.584,-80.322
0.883,-0.4,2.936,156.799,52.002,-86.121
0.969,-0.287,2.729,71.533,44.8,-76.233
0.987,-0.173,2.116,38.147,35.095,-52.368
0.834,-0.183,1.786,8.301,-0.977,22.888
0.371,-0.303,1.343,9.949,-15.015,58.533
0.154,-0.374,1.245,19.104,-25.94,95.764
-0.176,-0.443,1.184,19.836,-24.963,92.712
-0.245,-0.45,1.161,10.986,-17.151,57.556
-0.125,-0.451,1.08,8.362,-8.728,36.804
-0.015,-0.475,1.043,12.146,5.554,16.724
0.104,-0.506,0.995,15.198,6.714,17.334
0.124,-0.499,1,21.118,-5.249,23.56
0.099,-0.46,1.058,23.865,-10.864,25.513
0.086,-0.45,1.103,21.606,-9.521,20.142
0.106,-0.443,1.147,15.503,-6.531,14.221
0.126,-0.432,1.135,1.831,-0.61,4.761
0.181,-0.409,1.091,-2.136,0.732,2.686
0.208,-0.404,1.084,-2.869,1.282,4.089
0.203,-0.389,1.053,-1.953,2.258,6.348
0.184,-0.39,1.052,-2.014,2.502,8.911
0.15,-0.404,1.073,-5.798,-0.305,8.423
0.138,-0.401,1.061,-16.113,-4.517,5.066
0.126,-0.387,1.025,-18.738,-4.333,3.052
0.13,-0.386,1.028,-20.447,-3.662,-1.099
0.153,-0.382,1.046,-21.545,-4.272,-3.235
0.158,-0.381,1.063,-23.987,-3.296,-7.629
0.592,-0.727,1.728,80.017,36.499,10.681
0.896,-0.608,2.094,107.056,27.954,8.667
0.832,-0.495,2.226,158.325,-23.926,48.828
0.46,-0.495,2.515,186.035,-34.119,52.856
0.376,-0.582,2.658,206.177,13.855,10.559
0.482,-0.571,2.692,192.322,44.25,-14.282
0.596,-0.512,2.668,146.24,58.105,-50.598
0.705,-0.396,2.567,115.601,50.293,-63.11
0.734,-0.349,2.406,81.299,42.236,-76.538
0.821,-0.326,1.922,26.794,28.931,-86.243
0.801,-0.347,1.698,7.751,6.531,-45.654
0.568,-0.413,1.407,4.395,-7.874,-9.827
0.367,-0.427,1.286,1.099,-21.24,27.405
0.028,-0.439,1.128,2.136,-34.485,69.58
-0.048,-0.453,1.101,8.057,-33.264,68.909
-0.089,-0.468,1.078,22.278,-14.465,45.776
-0.096,-0.487,1.071,24.78,-7.08,31.067
-0.061,-0.488,1.081,21.912,-1.343,14.709
0.005,-0.485,1.073,20.264,-3.54,13.916
0.017,-0.479,1.065,19.592,-11.23,13.367
0.031,-0.45,1.053,21.545,-9.766,11.169
0.03,-0.435,1.049,28.748,-1.953,4.089
0.038,-0.43,1.119,29.724,-1.16,0.427
0.045,-0.42,1.155,17.639,-3.418,-3.54
0.088,-0.405,1.167,8.484,-3.54,-4.456
0.12,-0.401,1.147,-5.005,-0.793,-4.395
0.143,-0.404,1.072,-7.874,-0.061,-2.991
0.132,-0.407,1.046,-7.751,-1.282,1.16
0.086,-0.408,1.055,-8.362,-2.441,3.235
0.06,-0.405,1.061,-14.954,-4.456,2.686
0.004,-0.29,1.366,199.036,41.26,52.612
0.202,-0.377,1.595,226.501,57.251,36.56
0.378,-0.371,2.246,249.512,33.569,52.368
0.404,-0.36,2.655,257.141,26.917,62.744
0.398,-0.351,2.879,228.516,41.992,35.461
0.31,-0.268,2.597,197.449,54.26,12.085
0.297,-0.298,2.451,153.87,62.012,-34.668
0.398,-0.435,2.385,131.836,58.167,-52.368
0.446,-0.418,2.3,75.073,39.673,-61.096
0.421,-0.352,1.994,50.964,35.461,-52.734
0.373,-0.352,1.804,18.677,36.255,-31.738
0.243,-0.399,1.44,13.733,29.297,-24.353
0.157,-0.434,1.312,18.25,10.132,-6.409
-0.013,-0.476,1.167,21.729,6.592,2.747
-0.056,-0.479,1.164,29.236,7.751,12.268
-0.076,-0.455,1.223,30.579,7.935,16.907
-0.085,-0.438,1.253,28.076,10.498,19.47
-0.094,-0.454,1.245,23.621,13.977,14.404
-0.093,-0.469,1.19,11.78,18.005,1.709
-0.045,-0.479,1.096,9.644,19.104,-3.052
0,-0.476,1.112,13.794,19.104,-6.653
0.077,-0.446,1.191,13.245,15.503,-4.639
0.094,-0.423,1.196,6.104,7.263,-0.854
0.109,-0.401,1.155,3.357,5.493,-0.671
0.109,-0.401,1.151,-0.244,6.47,1.16
0.082,-0.409,1.184,-4.211,6.409,3.601
0.064,-0.405,1.184,-15.442,5.371,5.005
0.036,-0.393,1.134,-19.714,5.188,3.052
0.035,-0.388,1.106,-22.705,5.188,0.488
0.052,-0.382,1.076,-26.306,8.24,-3.235
0.109,-0.016,1.76,246.887,59.387,-11.902
0.336,-0.009,2.061,242.859,65.491,-27.039
0.474,-0.016,2.265,239.441,64.697,-27.832
0.468,0.036,2.418,204.712,40.344,-11.23
0.35,0.075,2.265,176.88,33.02,-5.92
0.275,-0.009,2.028,150.269,36.377,-12.756
0.292,-0.058,2.011,146.79,38.513,-15.015
0.282,-0.081,2.011,128.113,21.24,-5.188
0.173,-0.121,2.002,113.586,10.986,1.831
0.076,-0.13,1.926,79.163,5.188,9.705
-0.075,-0.165,1.714,65.491,9.644,6.531
-0.07,-0.202,1.617,47.607,19.409,-8.057
0.004,-0.275,1.46,40.894,18.005,-11.536
-0.01,-0.299,1.367,30.945,11.047,-7.751
-0.043,-0.354,1.242,31.067,9.644,-5.371
-0.021,-0.376,1.247,36.072,6.775,0.854
-0.017,-0.39,1.25,34.851,3.174,5.249
-0.046,-0.392,1.181,28.931,-1.77,8.85
-0.063,-0.425,1.053,30.457,-4.272,9.705
-0.062,-0.437,1.067,34.668,-17.334,16.663
-0.096,-0.395,1.17,32.166,-21.729,18.799
-0.106,-0.368,1.186,21.851,-15.93,12.634
-0.088,-0.365,1.108,18.005,-9.766,6.409
-0.066,-0.378,1.054,19.592,-0.793,-3.296
-0.022,-0.411,1.064,22.095,-2.38,-4.272
-0.017,-0.41,1.097,19.409,-9.094,-3.479
-0.003,-0.383,1.129,15.381,-9.033,-3.479
0.005,-0.372,1.133,6.531,-8.423,-3.479
0.017,-0.368,1.153,3.54,-8.362,-4.211
0.024,-0.373,1.174,-3.418,-7.874,-6.104
0.141,0.025,0.566,-5.249,6.714,-5.859
0.139,0.04,0.652,43.884,1.282,3.784
0.068,-0.015,0.892,60.913,7.08,12.939
0.064,-0.016,0.949,68.237,18.799,29.541
0.05,0.085,0.952,73.12,23.865,34.912
0.004,0.119,0.946,102.783,29.053,36.255
-0.093,0.064,1.064,119.385,26.978,34.973
-0.084,0.023,1.206,140.015,35.706,40.527
-0.041,0.033,1.49,142.273,45.715,45.898
-0.039,0.066,1.545,136.23,48.096,34.363
-0.026,0.099,1.523,137.573,45.532,20.752
0.015,0.045,1.585,146.912,37.292,5.188
0.067,-0.066,1.845,145.264,36.499,2.869
0.044,-0.071,1.884,123.84,42.786,-15.747
0.081,-0.088,1.722,112.366,44.006,-34.119
0.174,-0.139,1.654,100.83,31.311,-58.838
0.283,-0.228,1.632,98.145,23.682,-57.251
0.276,-0.243,1.625,92.59,14.404,-47.607
0.244,-0.286,1.579,89.844,11.536,-45.166
0.208,-0.305,1.543,85.876,8.24,-42.114
0.112,-0.342,1.454,76.355,4.639,-30.457
0.087,-0.351,1.423,73.792,6.287,-25.452
0.092,-0.362,1.455,73.486,11.108,-13.123
0.088,-0.37,1.501,70.129,9.155,-1.709
0.047,-0.363,1.508,51.453,-2.747,19.287
-0.079,-0.319,1.421,42.725,-6.409,22.217
-0.109,-0.311,1.391,32.288,-4.883,18.372
-0.119,-0.336,1.385,27.344,-0.549,14.709
-0.108,-0.351,1.374,17.151,8.972,3.54
-0.052,-0.397,1.353,13.306,11.047,-1.648
-0.044,0.076,1.801,167.175,7.019,39.856
-0.034,-0.033,2.201,175.232,31.677,28.198
0.005,-0.02,2.197,146.057,48.279,-3.723
0.106,0.027,2.006,137.878,36.194,-15.625
0.166,-0.019,2.061,145.081,11.353,-21.24
0.212,-0.103,2.205,137.939,9.888,-23.376
0.211,-0.116,2.137,104.919,12.207,-45.41
0.284,-0.191,1.957,93.079,10.986,-56.152
0.335,-0.24,1.911,79.529,10.132,-55.359
0.354,-0.267,1.762,70.984,13.306,-43.579
0.314,-0.269,1.63,51.88,8.545,-12.451
0.169,-0.305,1.422,48.645,-1.465,-0.183
0.097,-0.344,1.407,51.636,-15.93,13.367
-0.024,-0.372,1.454,50.476,-16.907,14.221
-0.043,-0.373,1.477,44.067,-4.883,9.399
-0.041,-0.357,1.434,40.955,3.479,6.287
-0.033,-0.367,1.384,32.532,8.972,4.456
-0.023,-0.388,1.245,27.588,6.47,6.714
-0.032,-0.388,1.218,28.87,-0.977,13.55
-0.073,-0.393,1.303,29.846,-4.028,15.808
-0.101,-0.381,1.331,18.311,-6.042,12.024
-0.126,-0.351,1.294,9.521,-6.042,7.385
-0.119,-0.342,1.259,-4.822,-5.371,0.427
-0.061,-0.363,1.23,-9.338,-4.578,-2.136
-0.032,-0.38,1.23,-15.137,-3.845,-2.38
-0.024,-0.394,1.237,-18.494,-5.737,0.061
-0.032,-0.391,1.226,-28.015,-9.644,5.554
-0.049,-0.386,1.187,-32.532,-10.986,6.714
-0.051,-0.39,1.174,-39.124,-12.634,4.639
-0.027,-0.401,1.174,-41.382,-12.451,2.38
0.385,-0.323,2.774,212.341,26.184,44.067
0.229,-0.289,2.57,197.083,31.189,17.334
0.249,-0.366,2.509,188.354,32.898,-11.658
0.334,-0.516,2.642,179.81,33.63,-11.292
0.323,-0.485,2.551,128.418,36.316,-4.639
0.387,-0.412,2.201,111.45,35.034,-3.113
0.407,-0.443,2.115,100.952,22.217,6.165
0.258,-0.487,2,94.482,16.357,13.977
0.137,-0.506,1.842,73.486,16.541,27.954
-0.069,-0.569,1.442,68.054,21.24,31.921
-0.147,-0.61,1.365,68.97,27.71,35.339
-0.233,-0.596,1.403,64.697,27.344,31.311
-0.18,-0.57,1.405,47.058,36.56,7.019
0.032,-0.591,1.314,38.94,37.598,-2.625
0.066,-0.597,1.245,33.386,30.396,-6.348
0.045,-0.573,1.19,30.884,11.536,0.977
-0.023,-0.547,1.166,29.968,7.751,13.489
-0.023,-0.541,1.182,21.362,3.906,28.137
-0.052,-0.508,1.143,16.907,2.197,27.71
-0.077,-0.501,1.126,13.123,-5.859,23.254
-0.099,-0.476,1.139,9.216,-12.329,22.156
-0.112,-0.451,1.131,-2.197,-18.311,16.663
-0.102,-0.438,1.075,-5.676,-16.052,9.949
-0.083,-0.454,1.049,-5.615,-7.446,-3.845
-0.055,-0.478,1.059,-5.676,-4.456,-6.714
-0.046,-0.483,1.077,-13,-5.615,-6.409
-0.023,-0.473,1.074,-18.494,-6.958,-7.019
-0.001,-0.47,1.072,-25.574,-5.066,-11.108
0.034,-0.48,1.075,-28.015,-3.662,-12.146
0.034,-0.49,1.07,-32.898,-3.906,-12.573
-0.164,-0.293,0.927,-45.105,-132.202,9.949
-0.149,-0.169,1.378,36.804,-20.813,34.973
-0.024,-0.106,1.49,73.242,36.438,19.043
0.368,-0.164,1.74,146.24,46.265,-23.743
0.465,-0.269,1.94,186.584,21.423,-19.531
0.298,-0.412,2.244,235.352,-12.268,25.513
0.167,-0.419,2.35,242.798,-15.259,40.344
-0.015,-0.461,2.616,251.709,-14.587,26.794
-0.038,-0.457,2.676,246.155,-2.197,3.174
0.165,-0.42,2.66,206.36,18.494,-57.983
0.327,-0.395,2.631,180.786,19.775,-79.163
0.498,-0.356,2.555,121.643,19.226,-92.529
0.708,-0.222,2.154,91.37,11.353,-81.36
0.625,-0.172,1.9,49.805,-21.118,-21.973
0.195,-0.192,1.532,38.574,-34.424,8.179
-0.02,-0.223,1.395,23.193,-39.307,38.94
-0.295,-0.261,1.228,18.86,-33.752,39.673
-0.343,-0.274,1.172,13.794,-17.212,19.653
-0.278,-0.338,1.04,16.052,-2.197,4.883
-0.188,-0.385,1.018,19.226,16.113,-9.705
-0.024,-0.432,1.051,17.273,13.977,-6.042
0.006,-0.426,1.06,12.268,0.61,13.367
-0.04,-0.406,1.078,11.169,-3.479,22.278
-0.09,-0.41,1.065,10.559,-1.526,23.071
-0.162,-0.41,1.021,11.597,1.648,16.235
-0.158,-0.414,1.039,12.451,6.714,0.732
-0.098,-0.436,1.08,9.277,9.094,-5.127
-0.058,-0.443,1.073,0.549,11.169,-10.01
-0.002,-0.442,1.055,-2.38,10.132,-8.301
0.004,-0.438,1.06,-6.042,6.714,-0.305
0.064,-0.376,2.541,224.854,-19.043,-21.423
0.154,-0.443,2.693,204.712,7.141,-64.392
0.317,-0.412,2.604,175.72,26.733,-85.876
0.458,-0.349,2.299,118.103,28.137,-87.646
0.472,-0.336,2.07,93.384,24.719,-81.238
0.506,-0.339,1.677,64.27,14.282,-57.678
0.417,-0.336,1.57,58.777,-1.709,-29.907
0.224,-0.323,1.463,48.462,-28.442,27.832
-0.139,-0.339,1.289,44.312,-30.09,41.016
-0.207,-0.376,1.273,37.842,-21.667,42.419
-0.225,-0.397,1.225,33.447,-18.433,39.856
-0.231,-0.398,1.177,31.494,-9.155,25.574
-0.172,-0.434,1.123,31.555,-1.953,15.808
-0.129,-0.43,1.099,26.917,2.319,8.728
-0.101,-0.419,1.118,24.597,-0.793,10.193
-0.113,-0.414,1.134,18.86,-3.845,10.864
-0.145,-0.407,1.111,15.808,-1.953,7.08
-0.143,-0.401,1.075,9.705,3.845,-6.836
-0.093,-0.394,1.014,8.667,6.958,-12.939
-0.065,-0.4,1.018,10.193,10.681,-13.611
-0.035,-0.409,1.055,8.789,8.606,-9.827
-0.036,-0.404,1.043,1.587,2.197,-2.869
-0.05,-0.403,0.973,-0.488,1.648,-1.282
-0.063,-0.405,0.949,1.221,0.732,0.122
-0.109,-0.393,0.972,2.197,-1.953,0.122
-0.127,-0.384,1.003,-1.709,-4.578,-4.883
-0.103,-0.385,1.062,-5.859,-3.357,-9.094
-0.075,-0.391,1.068,-13.672,1.282,-16.968
-0.032,-0.42,1.029,-15.991,3.418,-20.02
-0.016,-0.438,1.008,-16.602,6.531,-21.484
0.524,-0.288,2.593,160.95,-54.382,32.349
-0.066,-0.073,2.309,133.85,-64.331,88.928
-0.113,-0.137,2.295,137.39,-9.46,56.641
-0.005,-0.212,2.213,127.869,5.188,31.982
0.042,-0.209,2.117,104.553,5.188,-21.729
0.086,-0.187,1.757,92.957,7.996,-42.297
0.131,-0.185,1.55,78.979,19.592,-50.476
0.222,-0.214,1.338,79.102,20.203,-40.283
0.227,-0.242,1.323,80.505,16.296,-25.635
0.133,-0.301,1.257,76.477,3.235,-0.854
0.065,-0.339,1.21,72.266,-1.709,4.517
-0.038,-0.371,1.171,65.796,-2.563,3.845
-0.041,-0.375,1.199,65.613,4.089,-1.648
-0.014,-0.381,1.232,57.739,19.226,-11.841
0.039,-0.427,1.202,47.668,18.555,-12.085
0.039,-0.493,1.091,33.02,13.611,-5.31
0.034,-0.511,1.071,32.471,14.099,-0.488
0.013,-0.501,1.114,36.865,17.151,6.348
-0.011,-0.498,1.12,36.682,19.226,7.69
-0.043,-0.51,1.095,31.799,18.066,7.629
-0.09,-0.552,1.078,30.701,13.428,6.836
-0.088,-0.559,1.119,28.564,5.493,0.732
-0.047,-0.553,1.21,25.146,5.798,-3.784
-0.026,-0.536,1.194,15.869,11.047,-10.559
-0.002,-0.534,1.101,13.733,13.672,-10.559
-0.001,-0.546,1.074,13.611,10.925,-0.183
-0.04,-0.554,1.087,12.512,6.226,7.69
-0.078,-0.536,1.099,6.348,-0.427,16.968
-0.133,-0.5,1.123,2.197,-0.793,16.296
-0.143,-0.493,1.114,-8.423,3.967,8.911
-1.203,-0.532,0.149,90.454,105.591,-27.771
-0.831,-0.474,1.183,-15.686,-20.447,-125.671
-0.496,-0.429,1.318,-100.586,-150.085,-94.238
0.071,-0.49,1.98,-56.946,-136.169,-25.635
0.313,-0.507,2.584,121.887,-2.686,41.26
0.894,-0.422,3.354,179.993,39.001,24.17
0.935,-0.357,3.233,193.726,-10.498,35.767
0.269,-0.321,2.958,198.059,-57.19,69.092
-0.007,-0.404,3.159,230.164,-43.884,67.383
0.128,-0.456,3.474,219.055,0.305,27.466
0.27,-0.303,3.286,135.376,49.072,-40.405
0.369,-0.107,2.643,93.933,50.476,-57.922
0.4,-0.128,2.395,60.791,48.157,-65.674
0.246,-0.121,1.839,7.324,25.94,-44.128
0.049,-0.111,1.552,-6.042,8.545,-23.132
-0.133,-0.121,1.359,0.366,-4.517,7.385
-0.279,-0.166,1.261,4.822,-4.395,12.329
-0.302,-0.166,1.236,-2.258,-2.136,12.878
-0.317,-0.124,1.088,-5.92,0.183,9.46
-0.269,-0.131,1.024,7.996,1.038,-6.348
-0.164,-0.218,0.995,20.447,3.113,-11.292
-0.132,-0.247,1.035,30.151,11.23,-11.658
-0.051,-0.234,1.124,24.719,11.047,-8.606
-0.008,-0.246,1.14,11.292,9.583,-1.221
-0.009,-0.307,1.043,6.958,7.507,2.075
-0.061,-0.33,0.992,8.484,0.977,4.395
-0.144,-0.337,0.999,12.817,1.526,-1.221
-0.116,-0.331,1.033,16.174,6.836,-20.02
-0.001,-0.337,1.067,13.794,8.484,-24.963
0.023,-0.339,1.058,4.944,7.202,-20.569
