aX,aY,aZ,gX,gY,gZ
-0.661,-0.468,2.37,76.294,793.884,291.199
-0.773,-0.454,2.304,27.71,1104.675,390.32
-0.58,-0.28,1.896,4.15,1182.556,419.25
-0.576,-0.246,1.951,-13.855,1339.538,498.169
-1.405,0.031,1.752,-49.683,1442.139,527.1
-1.779,0.107,1.219,-212.036,1429.504,451.355
-1.869,-0.062,-0.199,-292.48,1301.88,391.479
-1.8,-0.064,-0.983,-351.868,928.894,284.912
-1.574,0.012,-2.145,-312.927,716.431,228.149
-1.424,0.065,-2.375,-176.147,279.419,117.676
-0.975,0.162,-2.13,-108.154,108.521,77.148
-0.687,0.225,-1.834,-28.137,-52.979,36.987
-0.142,0.425,-1.479,-16.663,-63.232,28.015
0.041,0.516,-1.446,-7.019,-48.889,18.677
0.153,0.638,-1.354,3.357,-48.401,16.846
0.109,0.644,-1.265,31.738,-37.659,10.437
0.058,0.502,-1.081,41.443,-28.442,4.395
0.049,0.416,-0.989,35.278,-32.166,-2.38
0.03,0.298,-0.799,26.001,-34.668,-2.869
0.014,0.287,-0.737,20.447,-28.992,-2.502
0.017,0.298,-0.729,10.376,-8.85,-6.897
0.046,0.321,-0.786,0.732,-2.869,-11.169
0.087,0.342,-0.845,-10.376,-9.705,-19.287
0.173,0.325,-0.862,-10.437,-19.775,-19.409
0.183,0.306,-0.852,-12.634,-31.494,-10.681
0.163,0.33,-0.881,-15.869,-27.405,-5.798
0.146,0.363,-0.928,-19.775,-8.789,-5.493
0.157,0.348,-1.03,-18.127,-4.028,-8.484
0.177,0.323,-1.052,-16.907,-9.583,-5.066
0.182,0.306,-1.051,-14.954,-13.062,-0.549
-0.432,-0.343,1.844,53.711,909.18,371.765
-0.425,-0.305,1.809,-17.456,1038.025,432.251
-0.419,-0.196,1.672,-39.673,1100.281,441.345
-0.54,-0.003,1.384,-29.724,1253.967,411.865
-0.807,0.272,0.445,-46.692,1266.113,374.817
-0.898,0.205,0.067,-136.169,1104.248,300.049
-1.065,0.225,-0.765,-172.424,989.136,274.231
-1.08,0.299,-1.186,-196.167,702.27,201.538
-0.897,0.175,-1.632,-176.88,533.203,156.311
-0.79,0.077,-1.622,-121.46,228.149,99.487
-0.68,0.221,-1.568,-104.431,125.122,82.397
-0.596,0.311,-1.541,-58.716,26.978,43.335
-0.275,0.34,-1.453,-35.95,13.794,24.414
-0.108,0.391,-1.439,-9.155,9.216,4.578
0.035,0.531,-1.403,0.183,1.953,0.977
0.046,0.551,-1.324,16.602,-24.231,-6.042
0.064,0.452,-1.118,25.024,-31.799,-7.629
0.065,0.411,-1.036,38.635,-33.081,-3.296
0.036,0.364,-0.902,39.978,-34.058,-3.113
0.035,0.34,-0.841,31.86,-34.058,-7.996
0.055,0.329,-0.763,28.564,-28.809,-10.315
0.07,0.331,-0.757,26.062,-9.033,-14.709
0.097,0.334,-0.816,22.278,-3.174,-16.846
0.112,0.341,-0.852,11.78,-10.559,-21.606
0.152,0.332,-0.88,7.935,-18.25,-23.254
0.173,0.332,-0.878,4.883,-24.17,-22.522
0.197,0.336,-0.883,4.944,-23.132,-20.996
0.202,0.336,-0.883,4.272,-16.479,-14.648
0.2,0.34,-0.908,1.892,-11.475,-11.963
0.201,0.342,-0.93,1.343,-3.54,-6.958
0.054,-0.656,2.255,6.104,494.995,233.582
-0.145,-0.647,2.356,-42.114,804.321,411.987
-0.555,-0.321,2.037,-76.782,935.364,461.914
-0.564,-0.142,1.825,-134.583,1038.33,426.392
-0.618,0.108,1.571,-128.723,1077.759,384.949
-0.762,0.255,1.272,-68.42,1222.656,324.707
-0.92,0.313,0.351,-70.801,1230.896,305.664
-1.022,0.213,-0.014,-152.527,1053.772,267.395
-1.288,0.196,-0.885,-193.298,924.622,239.685
-1.309,0.305,-1.274,-186.218,607.971,147.461
-1.062,0.303,-1.397,-148.804,448.914,95.764
-0.887,0.248,-1.318,-122.62,208.862,39.978
-0.584,0.325,-1.442,-131.714,131.592,30.457
-0.46,0.395,-1.538,-112.793,48.706,14.221
-0.119,0.447,-1.538,-88.074,32.104,5.859
0.026,0.484,-1.518,-50.598,6.226,4.211
0.146,0.572,-1.424,-40.527,-14.526,8.24
0.149,0.569,-1.331,-20.691,-44.434,12.512
0.137,0.492,-1.084,-7.446,-43.823,13.184
0.119,0.46,-0.976,12.817,-25.024,13.794
0.092,0.387,-0.847,18.005,-19.409,11.658
0.102,0.365,-0.801,18.738,-23.987,5.371
0.143,0.346,-0.713,14.16,-26.978,1.526
0.16,0.338,-0.685,7.507,-25.635,-2.441
0.175,0.354,-0.741,-4.883,-10.803,-9.399
0.193,0.36,-0.795,-6.348,-3.479,-13.245
0.235,0.354,-0.864,-2.93,1.282,-16.174
0.25,0.338,-0.87,-3.235,-1.099,-15.686
0.253,0.337,-0.884,-11.108,-4.211,-12.573
0.249,0.355,-0.954,-14.282,-4.15,-11.841
-0.489,0.011,1.477,-169.617,881.592,286.255
-0.403,0.175,1.173,-216.797,886.475,235.718
-0.272,0.314,0.902,-195.557,882.812,192.2
-0.352,0.308,0.632,-112.366,972.656,133.484
-0.464,0.33,-0.202,-91.064,994.018,117.126
-0.418,0.251,-0.469,-129.15,867.187,104.248
-0.505,0.177,-0.773,-162.903,777.283,99.06
-0.586,0.269,-1.013,-197.205,615.173,55.237
-0.475,0.345,-1.333,-185.242,523.193,23.865
-0.345,0.277,-1.301,-134.216,367.92,-11.047
-0.138,0.232,-1.259,-123.047,315.063,-14.221
-0.064,0.272,-1.322,-113.281,234.68,-19.104
0.114,0.308,-1.51,-102.966,196.411,-20.447
0.213,0.292,-1.574,-68.176,110.291,-10.742
0.304,0.335,-1.553,-45.288,72.998,-0.122
0.292,0.362,-1.469,-5.249,20.508,12.878
0.223,0.357,-1.253,8.911,4.761,13.489
0.208,0.316,-1.136,15.747,-15.442,9.338
0.197,0.265,-0.963,13.794,-15.625,8.423
0.188,0.273,-0.939,13,-6.348,6.836
0.166,0.278,-0.913,14.648,-8.484,5.432
0.15,0.269,-0.861,18.982,-13,2.747
0.12,0.259,-0.79,17.09,-9.46,0.916
0.122,0.265,-0.807,4.272,-3.54,-4.395
0.156,0.281,-0.884,-2.014,-5.493,-7.385
0.181,0.278,-0.909,-8.911,-15.808,-12.39
0.217,0.276,-0.919,-10.071,-20.752,-12.573
0.231,0.278,-0.914,-8.423,-18.127,-9.46
0.25,0.284,-0.952,-7.874,-14.404,-7.385
0.253,0.29,-0.981,-5.31,-17.578,-3.601
-0.344,-0.366,2.337,-45.776,683.655,183.533
-0.672,-0.222,2.186,-102.173,1014.282,272.156
-0.55,0,1.4,-119.995,1091.125,266.602
-0.384,0.122,1.248,-88.684,1107.422,220.154
-0.51,0.284,0.917,-61.89,1146.484,202.026
-0.687,0.368,0.435,-87.463,1141.785,191.65
-0.846,0.324,-0.519,-125.305,1035.034,174.561
-0.837,0.202,-0.864,-143.311,775.94,118.469
-0.732,0.182,-1.487,-129.883,656.189,99.426
-0.659,0.273,-1.639,-110.107,386.841,55.176
-0.423,0.319,-1.535,-92.224,276.611,24.963
-0.247,0.302,-1.453,-48.645,169.006,-14.16
0.099,0.299,-1.447,-39.063,137.573,-17.639
0.246,0.329,-1.446,-32.104,66.223,-9.644
0.401,0.463,-1.392,-20.752,41.077,-1.16
0.374,0.53,-1.334,14.832,18.677,15.93
0.26,0.501,-1.144,27.954,10.803,19.104
0.229,0.434,-1.028,34.546,-9.888,17.029
0.21,0.362,-0.81,29.236,-20.264,12.573
0.208,0.353,-0.739,10.315,-33.081,-1.77
0.24,0.326,-0.657,3.723,-31.494,-8.301
0.268,0.311,-0.639,-1.77,-8.972,-11.353
0.298,0.314,-0.71,-5.432,3.662,-10.62
0.307,0.316,-0.774,-15.503,8.606,-10.254
0.309,0.335,-0.888,-19.409,3.662,-10.681
0.312,0.321,-0.918,-23.437,-6.409,-13.428
0.321,0.32,-0.966,-23.132,-6.775,-14.282
0.327,0.335,-1,-15.015,0.183,-14.099
0.354,0.329,-1.032,-9.644,-1.099,-12.634
0.369,0.307,-1.019,-3.662,-16.846,-5.066
-1.166,0.372,0.901,-152.893,1261.353,340.332
-1.23,0.377,0.233,-239.929,1163.025,229.004
-1.006,0.113,-0.435,-258.972,1040.405,185.12
-0.849,-0.016,-1.035,-298.157,825.928,137.146
-0.823,0.056,-1.4,-308.228,575.073,86.975
-0.637,0.107,-1.911,-268.982,429.321,53.467
-0.488,0.073,-1.968,-150.818,179.687,16.602
-0.267,0.09,-1.847,-105.164,99.67,13.184
-0.193,0.164,-1.786,-46.692,21.973,9.033
0.026,0.304,-1.633,-26.917,2.991,2.502
0.156,0.339,-1.519,3.662,-17.883,-5.981
0.247,0.407,-1.3,17.822,-19.714,-2.747
0.218,0.412,-1.19,39.124,-27.649,6.042
0.141,0.322,-0.926,44.25,-35.095,7.385
0.112,0.282,-0.8,45.837,-38.391,6.836
0.103,0.269,-0.691,35.767,-29.846,-0.793
0.125,0.26,-0.677,27.527,-25.146,-5.798
0.146,0.255,-0.675,8.85,-22.034,-12.268
0.176,0.252,-0.731,0.549,-21.606,-13.245
0.181,0.259,-0.771,-7.08,-19.409,-12.146
0.185,0.268,-0.838,-9.094,-15.442,-12.146
0.193,0.282,-0.886,-14.404,-8.545,-13.855
0.241,0.256,-0.974,-16.235,-10.01,-14.099
0.253,0.256,-1.032,-15.503,-18.188,-8.728
0.254,0.258,-1.044,-13,-23.132,-6.165
0.261,0.253,-1.072,-5.127,-32.837,-2.319
0.265,0.255,-1.087,-1.221,-41.321,-1.038
0.268,0.26,-1.092,6.042,-68.726,0.183
0.276,0.261,-1.075,8.301,-86.06,0.122
0.284,0.251,-1.067,11.292,-124.878,-0.122
-0.843,0.078,-1.852,-292.358,596.558,145.142
-0.723,0.119,-2.101,-213.562,292.664,82.397
-0.497,0.24,-2.145,-162.842,161.865,59.387
-0.36,0.281,-1.983,-77.271,7.446,31.677
-0.008,0.359,-1.577,-46.387,-17.09,23.804
0.168,0.416,-1.448,-6.775,-8.667,14.771
0.303,0.491,-1.284,2.502,-5.737,18.005
0.244,0.493,-1.17,15.137,-19.165,26.184
0.094,0.387,-0.917,19.287,-25.757,24.048
0.066,0.319,-0.814,20.142,-27.832,11.169
0.092,0.229,-0.693,15.137,-24.78,6.104
0.108,0.218,-0.681,-3.113,-18.494,0
0.127,0.238,-0.737,-6.409,-16.785,-4.272
0.137,0.249,-0.789,-6.409,-14.587,-10.071
0.162,0.248,-0.875,-8.85,-13.916,-11.963
0.167,0.253,-0.926,-11.902,-3.052,-12.207
0.178,0.275,-1.059,-12.207,0.549,-11.719
0.178,0.282,-1.097,-9.949,-6.653,-8.423
0.166,0.281,-1.079,-5.554,-12.329,-6.348
0.158,0.276,-1.044,7.202,-16.602,-2.686
0.145,0.271,-0.981,11.719,-15.869,-1.77
0.141,0.268,-0.96,15.503,-15.747,-2.014
0.14,0.255,-0.917,15.503,-16.724,-1.343
0.135,0.257,-0.901,12.878,-18.433,-0.183
0.135,0.276,-0.879,11.78,-19.775,-1.282
0.143,0.29,-0.868,10.315,-24.109,-4.639
0.16,0.312,-0.852,9.399,-25.452,-6.592
0.171,0.309,-0.849,5.92,-26.428,-10.132
0.19,0.303,-0.868,3.601,-26.794,-11.169
0.194,0.307,-0.888,1.465,-28.015,-12.39
-0.383,-0.249,2.259,-64.758,606.567,94.849
-0.677,-0.171,2.194,-167.053,914.673,179.871
-0.973,0.001,1.646,-212.769,1025.757,177.551
-0.819,0.064,1.297,-222.961,1110.596,111.877
-0.602,0.312,0.662,-175.354,1119.934,89.844
-0.525,0.308,0.388,-95.459,1107.544,65.857
-0.495,0.048,-0.475,-103.333,1061.34,63.354
-0.513,0.009,-1.119,-140.564,827.942,66.223
-0.487,0.057,-1.928,-129.333,655.212,57.312
-0.444,0.06,-1.895,-58.899,349.548,26.123
-0.303,0.141,-1.545,-28.137,260.193,7.812
-0.174,0.185,-1.454,2.197,180.298,-36.499
0.222,0.221,-1.39,9.644,156.433,-51.941
0.407,0.253,-1.356,16.052,104.553,-44.678
0.545,0.394,-1.276,18.372,77.332,-29.236
0.509,0.437,-1.209,26.489,34.302,-3.052
0.383,0.402,-1.061,31.189,23.621,1.709
0.345,0.37,-0.999,36.804,11.719,-1.16
0.323,0.289,-0.846,38.208,5.981,-5.31
0.334,0.248,-0.765,32.104,-0.671,-12.024
0.382,0.208,-0.692,24.414,-2.441,-14.038
0.404,0.203,-0.679,17.212,-3.357,-14.832
0.418,0.245,-0.672,6.958,2.014,-13.794
0.434,0.252,-0.685,2.686,7.019,-14.221
0.455,0.25,-0.715,-4.883,15.625,-12.39
0.489,0.252,-0.81,-7.935,15.076,-10.803
0.498,0.258,-0.85,-11.108,2.563,-7.019
0.481,0.257,-0.875,-12.634,-4.456,-4.15
0.426,0.292,-0.92,-14.587,-7.996,-1.709
0.418,0.288,-0.937,-12.39,-8.423,-2.93
-0.726,0.228,-1.922,-160.889,497.742,48.889
-0.553,0.191,-1.988,-114.38,307.434,20.386
-0.369,0.279,-2.097,-99.915,216.431,19.714
-0.302,0.381,-2.068,-44.739,68.054,12.634
-0.103,0.477,-1.726,-9.644,15.625,5.005
-0.01,0.449,-1.458,44.434,-45.288,-9.583
0.133,0.307,-0.924,57.068,-57.434,-16.052
0.206,0.234,-0.724,53.101,-56.702,-22.705
0.309,0.175,-0.516,41.199,-51.392,-21.423
0.318,0.173,-0.495,15.442,-36.255,-19.958
0.324,0.148,-0.555,5.737,-24.536,-22.278
0.339,0.137,-0.62,-6.775,3.967,-23.926
0.34,0.157,-0.809,-8.789,19.226,-21.729
0.343,0.178,-0.928,-10.315,29.541,-19.47
0.368,0.173,-1.077,-10.376,20.691,-18.616
0.369,0.165,-1.097,-9.949,-4.395,-10.864
0.345,0.186,-1.071,-5.798,-11.169,-4.7
0.325,0.214,-1.036,11.78,-6.653,5.432
0.275,0.242,-0.975,18.005,-2.625,7.324
0.248,0.239,-0.959,20.447,-3.54,6.958
0.214,0.228,-0.93,18.005,-8.24,5.981
0.212,0.224,-0.907,13.428,-14.832,4.7
0.214,0.23,-0.837,6.714,-25.696,4.211
0.206,0.242,-0.806,7.019,-25.269,5.676
0.196,0.271,-0.794,7.324,-15.32,6.653
0.198,0.283,-0.81,5.737,-10.437,5.31
0.205,0.282,-0.829,1.77,-8.057,-0.061
0.222,0.266,-0.872,-0.122,-9.705,-2.625
0.226,0.262,-0.893,-1.892,-16.907,-6.287
0.223,0.255,-0.917,-1.892,-21.179,-7.812
-0.326,-0.337,2.116,-43.274,457.886,105.652
-0.336,-0.335,2.034,-85.999,751.892,157.959
-0.186,-0.354,1.806,-90.698,855.53,179.26
-0.306,-0.15,1.7,-41.687,1025.146,247.375
-0.578,0.03,1.641,6.592,1132.69,289.185
-0.778,0.129,1.368,14.771,1269.531,322.51
-0.76,0.165,0.219,-38.269,1200.256,306.335
-0.667,0.146,-0.297,-117.554,915.161,242.92
-0.642,0.195,-1.275,-111.633,801.025,213.135
-0.653,0.261,-1.661,-69.031,590.82,155.762
-0.61,0.298,-1.605,-64.087,472.839,125.488
-0.383,0.421,-1.394,-62.866,284.058,69.824
-0.22,0.505,-1.348,-51.392,234.314,50.293
0.051,0.62,-1.34,-30.212,161.865,31.616
0.124,0.654,-1.301,-26.184,116.211,28.442
0.145,0.648,-1.223,-7.019,43.945,25.146
0.123,0.563,-0.984,10.132,32.715,22.156
0.122,0.514,-0.877,31.25,32.593,6.226
0.172,0.38,-0.727,28.87,27.039,-4.883
0.205,0.331,-0.67,3.662,10.803,-21.362
0.263,0.278,-0.648,-7.019,13.428,-23.682
0.29,0.275,-0.7,-18.799,28.992,-20.569
0.32,0.31,-0.851,-21.973,26.794,-19.592
0.328,0.324,-0.894,-22.278,10.62,-18.799
0.344,0.331,-0.941,-21.851,4.761,-17.517
0.345,0.337,-0.973,-19.348,-3.662,-10.803
0.321,0.35,-1.008,-15.625,-8.667,-6.165
0.3,0.351,-1.013,-8.545,-22.217,0.061
0.259,0.363,-1.019,-5.493,-31.189,1.16
0.238,0.365,-1.01,-2.258,-56.03,-2.136
-0.24,-0.357,1.997,13.977,748.047,221.68
-0.211,-0.371,1.824,17.334,961.243,259.827
-0.186,-0.261,1.634,59.57,1055.42,298.584
-0.281,-0.143,1.615,117.371,1209.045,389.221
-0.444,0.012,0.768,88.196,1212.769,406.616
-0.378,0.045,0.191,2.136,1001.465,369.507
-0.519,0.162,-0.423,-17.029,902.954,341.736
-0.689,0.309,-0.887,-36.011,759.46,283.752
-0.683,0.437,-1.661,-42.114,622.559,241.76
-0.589,0.434,-1.696,-51.27,271.057,152.466
-0.364,0.504,-1.342,-49.438,144.897,114.624
-0.212,0.584,-1.173,-38.452,40.955,68.787
0.074,0.697,-1.024,-35.889,23.56,58.96
0.163,0.714,-0.982,-28.32,8.789,48.523
0.249,0.684,-0.915,-23.315,4.15,43.396
0.241,0.65,-0.877,-13.062,-4.272,30.334
0.206,0.544,-0.79,-10.498,-6.348,21.667
0.21,0.479,-0.758,-2.075,-1.099,8.484
0.244,0.391,-0.729,1.831,3.296,4.7
0.27,0.371,-0.731,-5.859,-2.075,-2.319
0.325,0.364,-0.744,-12.939,-7.996,-6.592
0.351,0.362,-0.764,-18.372,-11.047,-12.451
0.388,0.381,-0.826,-18.066,-10.193,-11.963
0.395,0.402,-0.856,-16.418,-14.038,-9.766
0.416,0.408,-0.879,-14.771,-18.311,-8.972
0.424,0.398,-0.879,-13.794,-25.696,-4.333
0.408,0.394,-0.914,-14.954,-29.175,-0.916
0.387,0.407,-0.938,-12.329,-37.598,2.319
0.355,0.417,-0.952,-8.85,-43.884,0.977
0.345,0.41,-0.945,-9.338,-68.909,-6.47
0.061,-0.528,2.307,63.293,741.577,249.634
-0.086,-0.546,2.167,78.796,1090.82,377.991
-0.357,-0.268,1.753,113.892,1204.651,443.115
-0.376,-0.108,1.332,72.205,1176.636,483.093
-0.079,0.202,-0.329,-21.423,979.004,442.017
0.192,0.288,-1.007,-147.705,451.05,298.584
0.439,0.337,-1.247,-141.541,289.001,247.62
0.289,0.436,-1.029,-64.026,263.611,201.721
0.071,0.536,-0.598,-46.814,275.208,178.223
0.118,0.467,-0.369,-64.209,230.835,136.292
0.222,0.427,-0.059,-73.364,230.225,126.709
0.254,0.464,-0.052,-100.037,268.616,114.807
0.306,0.576,-0.291,-123.596,272.522,107.483
0.307,0.609,-0.499,-146.301,255.066,86.609
0.274,0.609,-0.907,-139.771,241.699,76.233
0.25,0.584,-1.032,-112.488,208.313,56.519
0.211,0.547,-1.196,-98.328,185.486,48.218
0.225,0.522,-1.236,-65.491,118.835,31.982
0.265,0.467,-1.17,-46.57,83.801,28.32
0.264,0.458,-1.083,-24.414,22.278,23.804
0.247,0.477,-0.91,-21.24,1.892,18.738
0.254,0.484,-0.862,-16.785,-11.902,2.869
0.292,0.486,-0.834,-11.414,-11.902,-3.845
0.307,0.46,-0.823,4.639,-12.39,-11.902
0.337,0.394,-0.804,8.057,-14.709,-13.55
0.352,0.38,-0.804,3.113,-22.339,-12.024
0.369,0.404,-0.825,-0.427,-24.902,-10.01
0.374,0.426,-0.852,-2.747,-32.776,-8.789
0.384,0.432,-0.88,-0.122,-39.49,-9.033
0.376,0.43,-0.878,6.897,-45.593,-9.399
0.235,-0.631,2.034,-48.767,631.226,130.432
0.176,-0.646,1.95,-55.603,843.384,266.296
-0.259,-0.171,1.564,-59.448,917.114,323.547
-0.402,0.047,1.354,-73.608,961.182,333.374
-0.515,0.239,1.077,-76.538,954.59,309.998
-0.569,0.174,1.042,-92.102,963.135,288.269
-0.912,0.208,0.486,-130.554,974.243,289.185
-1.031,0.318,-0.282,-198.669,869.873,225.647
-0.724,0.238,-1.93,-190.43,722.351,175.476
-0.559,0.193,-2.28,-122.253,342.468,104.553
-0.446,0.377,-1.945,-80.75,205.994,71.777
-0.33,0.482,-1.652,-15.503,118.347,6.104
0.211,0.585,-1.292,3.174,108.215,-13.672
0.458,0.629,-1.144,23.315,71.777,-14.709
0.578,0.718,-0.901,25.146,52.307,-5.066
0.515,0.704,-0.855,15.625,20.02,4.883
0.417,0.557,-0.785,13,3.906,3.418
0.386,0.5,-0.702,14.343,-10.315,0.977
0.341,0.398,-0.503,16.907,-13.611,-5.371
0.34,0.36,-0.458,12.512,0.916,-9.399
0.39,0.343,-0.541,-8.179,37.231,-17.273
0.42,0.348,-0.642,-18.127,47.119,-20.935
0.479,0.372,-0.842,-28.625,39.246,-24.231
0.495,0.385,-0.901,-28.015,26.855,-22.217
0.483,0.421,-0.948,-18.25,11.169,-14.832
0.467,0.435,-0.967,-11.047,12.207,-11.597
0.459,0.419,-1.015,-1.099,12.207,-7.202
0.457,0.411,-1.022,0.183,1.587,-4.456
0.415,0.419,-1.001,0.732,-36.194,0.244
0.394,0.412,-0.972,2.441,-57.434,0
-0.185,0.231,-2.279,-129.639,391.724,98.816
-0.102,0.302,-2.155,-59.082,100.403,59.143
0.056,0.446,-1.597,-26.306,27.283,49.561
0.111,0.548,-1.379,11.78,-19.714,38.391
0.232,0.651,-1.089,23.193,-20.691,27.588
0.287,0.631,-1.006,36.377,-16.479,7.507
0.329,0.515,-0.873,36.621,-25.452,0.549
0.339,0.432,-0.761,34.79,-52.49,-5.249
0.33,0.368,-0.556,33.691,-53.406,-5.127
0.349,0.368,-0.522,22.827,-41.931,-12.207
0.437,0.36,-0.562,15.686,-39.673,-17.883
0.488,0.362,-0.595,3.601,-47.485,-28.748
0.599,0.357,-0.654,0.671,-50.903,-31.372
0.632,0.363,-0.651,8.789,-34.546,-27.588
0.654,0.397,-0.653,13.855,-13,-24.78
0.668,0.403,-0.703,10.376,14.893,-21.118
0.676,0.383,-0.782,6.042,11.658,-18.494
0.659,0.371,-0.781,-0.854,-8.972,-11.597
0.603,0.366,-0.763,-2.747,-14.954,-8.972
0.573,0.37,-0.764,7.751,-5.493,-3.479
0.521,0.4,-0.795,14.404,0.854,-2.258
0.515,0.396,-0.803,19.958,-5.615,-4.761
0.508,0.387,-0.787,18.555,-14.832,-5.371
0.501,0.402,-0.782,11.23,-39.001,-7.996
0.502,0.426,-0.774,6.958,-53.223,-12.024
0.514,0.421,-0.776,1.465,-79.651,-20.447
0.539,0.419,-0.802,2.014,-91.003,-22.034
0.551,0.423,-0.808,7.202,-117.798,-25.33
0.589,0.42,-0.763,12.024,-131.714,-27.222
0.611,0.408,-0.717,22.339,-153.442,-28.687
-0.597,-0.078,2.131,-85.937,703.735,96.375
-0.792,-0.053,2.023,-102.356,1035.645,140.625
-0.514,0.024,1.434,-90.149,1142.395,157.776
-0.139,0.072,0.871,-105.591,1167.053,168.335
-0.207,0.135,0.508,-130.432,1135.986,163.208
-0.309,0.133,0.133,-148.376,1046.326,124.695
-0.351,-0.057,-0.873,-148.865,976.44,108.154
-0.328,-0.099,-1.48,-142.456,725.159,94.482
-0.243,0.003,-2.217,-131.592,528.748,91.187
-0.227,0.146,-2.086,-74.097,169.678,65.674
-0.101,0.454,-1.433,-36.438,85.022,42.053
0.052,0.533,-1.212,9.705,41.443,2.441
0.316,0.538,-1.005,17.273,32.837,-3.784
0.376,0.527,-0.945,19.653,12.39,-0.427
0.356,0.507,-0.821,20.569,5.859,0.732
0.339,0.472,-0.734,23.071,-4.089,-6.104
0.361,0.364,-0.554,25.391,-2.014,-10.62
0.386,0.33,-0.51,19.592,12.268,-19.165
0.462,0.307,-0.53,11.658,15.381,-24.292
0.515,0.293,-0.544,-2.258,10.742,-33.875
0.632,0.24,-0.556,-9.033,9.033,-34.485
0.671,0.242,-0.614,-22.522,17.883,-30.029
0.714,0.267,-0.816,-25.085,20.264,-27.771
0.722,0.275,-0.903,-21.484,3.784,-20.02
0.707,0.263,-0.959,-16.724,-10.986,-14.16
0.68,0.269,-0.945,-6.531,-35.706,-1.343
0.61,0.29,-0.881,-1.648,-42.908,2.625
0.585,0.291,-0.849,5.127,-47.913,4.883
0.555,0.298,-0.851,6.958,-50.598,3.845
0.544,0.306,-0.868,7.446,-75.195,-0.305
-0.266,-0.304,2.061,-95.703,613.22,132.629
-0.385,-0.24,1.917,-155.09,884.582,165.344
-0.453,0.008,1.378,-158.63,977.722,169.495
-0.411,0.152,1.186,-115.051,1084.229,167.236
-0.25,0.133,0.755,-109.07,1104.919,163.086
-0.167,0.076,0.375,-153.32,1032.471,165.161
-0.1,0.134,-0.603,-171.265,945.74,149.536
-0.051,0.181,-1.163,-136.658,725.403,92.102
0.104,0.183,-1.687,-103.577,583.496,74.951
0.105,0.219,-1.569,-65.552,314.697,57.678
0.091,0.411,-1.229,-54.443,226.746,44.556
0.146,0.473,-1.102,-30.212,130.066,18.86
0.284,0.488,-0.952,-21.301,103.516,13.794
0.328,0.489,-0.949,-14.16,64.026,13.916
0.368,0.513,-0.946,-11.719,43.213,13.306
0.365,0.518,-0.865,-0.061,21.851,5.554
0.378,0.465,-0.741,4.639,24.597,-1.282
0.408,0.416,-0.738,4.272,13.55,-14.099
0.494,0.325,-0.714,2.625,-4.639,-18.066
0.524,0.297,-0.665,1.343,-30.396,-18.433
0.557,0.301,-0.618,-0.732,-28.687,-18.127
0.583,0.316,-0.651,-7.385,-15.869,-19.653
0.64,0.336,-0.762,-10.132,-16.968,-20.935
0.665,0.331,-0.802,-10.986,-35.95,-22.949
0.703,0.318,-0.846,-9.644,-47.791,-23.132
0.722,0.308,-0.856,-5.188,-71.655,-18.677
0.735,0.291,-0.864,-2.747,-85.693,-14.221
0.726,0.297,-0.864,-0.122,-120.422,-6.958
0.7,0.321,-0.845,0.977,-140.32,-6.714
0.691,0.325,-0.824,2.747,-181.274,-12.451
-0.163,-0.611,2.366,4.761,766.296,240.906
-0.388,-0.575,2.306,-71.35,1105.835,358.826
-0.908,-0.031,1.675,-112.976,1200.378,378.967
-0.839,0.336,0.686,-188.599,1191.162,329.102
-0.596,0.356,0.305,-202.27,1098.694,285.828
-0.191,0.184,-0.482,-197.998,897.095,203.674
-0.093,0.11,-1.066,-195.374,810.364,167.297
-0.031,0.061,-1.625,-175.415,561.157,107.788
0.014,0.17,-2.19,-148.865,395.935,85.388
0.031,0.306,-2.106,-44.922,127.075,37.72
0.195,0.471,-1.48,7.202,50.476,13.611
0.338,0.472,-1.162,43.701,-29.48,-7.629
0.535,0.495,-0.8,35.339,-49.255,-3.113
0.54,0.58,-0.713,21.851,-59.509,12.024
0.52,0.566,-0.691,22.156,-61.157,14.343
0.493,0.527,-0.64,27.344,-68.359,8.789
0.474,0.42,-0.495,29.175,-67.688,1.892
0.504,0.363,-0.434,23.315,-56.458,-10.986
0.568,0.342,-0.412,14.832,-49.988,-14.648
0.588,0.356,-0.438,0.61,-44.312,-22.095
0.668,0.322,-0.476,-2.319,-45.898,-23.499
0.713,0.328,-0.528,-5.493,-48.584,-21.118
0.787,0.39,-0.662,-5.92,-54.016,-21.057
0.818,0.406,-0.702,-3.174,-79.712,-20.935
0.835,0.418,-0.651,1.831,-91.553,-18.982
0.819,0.419,-0.597,12.634,-89.6,-16.846
0.781,0.422,-0.593,12.817,-86.243,-19.592
0.765,0.412,-0.602,8.362,-104.309,-31.677
0.769,0.359,-0.582,5.92,-121.094,-37.109
0.776,0.352,-0.575,5.249,-156.86,-44.312
-0.405,-0.397,2.067,-70.19,803.528,318.787
-0.634,-0.286,1.981,-122.498,1091.553,401.978
-0.78,-0.081,1.244,-163.33,1164.551,404.663
-0.8,0.095,0.76,-254.517,1126.16,350.708
-0.629,0.317,-0.096,-292.236,1028.931,290.222
-0.43,0.229,-0.523,-330.383,786.316,167.419
-0.065,0.062,-1.736,-315.918,663.025,125.61
0.074,0.054,-2.296,-201.172,374.329,68.665
0.17,0.28,-2.495,-121.155,223.328,45.044
0.198,0.399,-2.135,19.287,31.311,2.014
0.401,0.472,-1.304,55.298,-2.93,-7.446
0.483,0.496,-1.007,70.435,-18.066,-1.038
0.503,0.546,-0.6,62.683,-14.038,7.141
0.443,0.581,-0.51,35.522,5.615,10.559
0.382,0.496,-0.524,23.621,12.573,2.38
0.406,0.41,-0.586,14.771,11.353,-7.141
0.45,0.307,-0.626,13.428,-9.827,-16.235
0.466,0.315,-0.629,15.808,-19.287,-18.188
0.503,0.325,-0.632,17.7,-31.311,-26.794
0.642,0.344,-0.624,14.832,-37.781,-29.663
0.696,0.376,-0.623,1.465,-52.917,-30.09
0.763,0.413,-0.696,-3.784,-59.631,-30.334
0.789,0.405,-0.76,-2.93,-79.834,-27.527
0.807,0.403,-0.842,2.686,-92.407,-22.888
0.806,0.408,-0.838,21.301,-120.789,-13.428
0.768,0.417,-0.751,28.687,-137.878,-11.536
0.738,0.419,-0.694,29.48,-177.368,-19.897
0.689,0.407,-0.596,25.452,-196.838,-27.954
0.676,0.404,-0.548,19.409,-227.478,-45.837
0.677,0.382,-0.422,22.217,-233.276,-54.749
0,-0.495,2.031,-107.239,465.149,140.991
-0.299,-0.414,2.059,-157.593,780.456,255.737
-0.801,-0.131,1.579,-167.48,927.429,280.762
-0.648,-0.075,1.062,-220.642,989.624,254.639
0.056,-0.079,0.346,-258.667,885.071,235.474
0.285,-0.056,0.234,-247.009,743.835,206.604
0.331,0.168,-0.517,-209.656,748.047,184.265
0.458,0.187,-1.272,-188.354,566.895,130.493
0.714,0.215,-1.954,-174.255,367.187,114.99
0.61,0.347,-1.691,-67.2,124.756,84.961
0.378,0.558,-1.014,-17.395,104.858,59.509
0.381,0.592,-0.826,19.348,88.379,13.977
0.455,0.541,-0.607,19.409,68.298,-0.122
0.483,0.491,-0.552,2.38,26.001,-12.695
0.52,0.441,-0.578,-5.432,9.46,-14.648
0.552,0.432,-0.628,-4.883,-23.071,-21.545
0.646,0.402,-0.635,0.854,-40.649,-27.283
0.699,0.389,-0.595,13.916,-65.674,-38.391
0.796,0.371,-0.478,23.071,-68.909,-41.687
0.839,0.35,-0.417,37.476,-62.866,-41.443
0.895,0.337,-0.35,37.903,-61.218,-38.757
0.896,0.354,-0.325,33.325,-63.904,-31.677
0.888,0.362,-0.271,29.053,-66.101,-29.846
0.885,0.364,-0.25,19.043,-66.345,-30.273
0.875,0.364,-0.247,18.311,-58.533,-31.982
0.878,0.356,-0.281,22.522,-40.039,-35.217
0.885,0.336,-0.346,24.353,-40.894,-36.621
0.877,0.329,-0.334,28.076,-55.115,-39.368
0.881,0.292,-0.287,25.696,-60.852,-40.1
0.89,0.292,-0.295,11.292,-70.007,-38.757
0.376,-0.794,2.147,-46.265,217.895,137.817
0.252,-0.86,2.393,-177.246,528.442,294.128
-0.324,-0.8,2.234,-244.629,710.083,369.019
-0.627,-0.625,1.911,-293.701,972.778,444.519
-1.043,-0.002,1.498,-264.709,1035.339,424.927
-1.11,0.191,1.333,-210.144,1118.347,331.726
-0.936,0.216,0.528,-213.989,1120.361,285.767
-0.748,0.256,-0.087,-236.206,944.946,195.312
-0.19,0.113,-1.404,-229.736,787.231,146.973
-0.033,0.031,-1.923,-184.692,444.458,83.496
-0.013,0.24,-2.339,-142.273,289.307,57.434
0.042,0.363,-2.171,-29.785,79.712,-5.127
0.42,0.457,-1.49,12.329,21.912,-27.344
0.608,0.482,-1.162,41.748,-38.513,-27.1
0.715,0.603,-0.769,40.527,-50.842,-14.465
0.685,0.604,-0.676,34.485,-59.509,3.784
0.586,0.501,-0.508,33.02,-59.814,8.179
0.546,0.457,-0.427,28.015,-52.124,6.958
0.534,0.349,-0.342,24.78,-45.227,1.831
0.56,0.304,-0.329,11.902,-34.973,-5.798
0.633,0.291,-0.377,4.395,-31.677,-7.996
0.684,0.302,-0.435,-9.338,-37.17,-12.939
0.795,0.349,-0.545,-13.672,-46.997,-14.709
0.839,0.373,-0.565,-10.681,-62.683,-13.672
0.879,0.413,-0.587,-6.958,-63.477,-10.986
0.874,0.427,-0.62,-1.16,-66.04,-10.254
0.863,0.415,-0.679,4.028,-73.12,-12.39
0.853,0.406,-0.687,9.216,-105.896,-14.832
0.791,0.404,-0.646,8.85,-128.235,-16.846
0.763,0.39,-0.6,8.24,-172.302,-23.193
-0.322,-0.625,2.165,-161.072,673.706,224.609
-0.606,-0.508,1.963,-202.698,1011.719,352.661
-0.86,0.052,1.243,-205.505,1132.263,329.895
-0.715,0.442,0.434,-188.171,1124.817,276.611
-0.526,0.401,0.067,-167.297,996.765,164.551
-0.03,0.14,-0.968,-174.499,875.366,130.615
0.109,0.107,-1.552,-174.072,733.032,111.938
0.195,0.156,-2.226,-127.686,410.828,84.778
0.222,0.246,-2.154,-92.041,248.047,66.65
0.28,0.363,-1.898,-19.348,35.583,17.944
0.526,0.535,-1.253,6.958,-16.174,-3.418
0.644,0.557,-0.935,38.574,-61.89,-16.357
0.697,0.555,-0.504,44.312,-61.34,-12.024
0.685,0.524,-0.432,34.18,-54.26,-3.54
0.659,0.423,-0.417,26.062,-56.274,-1.221
0.651,0.381,-0.416,18.127,-60.425,-2.136
0.666,0.336,-0.406,17.334,-59.753,-5.005
0.683,0.328,-0.383,18.555,-48.828,-11.047
0.746,0.328,-0.37,18.25,-41.748,-13.123
0.785,0.337,-0.383,15.503,-39.551,-15.442
0.834,0.377,-0.401,13.123,-42.419,-16.724
0.843,0.399,-0.417,8.362,-43.762,-20.935
0.864,0.394,-0.474,9.155,-43.64,-23.315
0.868,0.395,-0.494,18.372,-42.786,-25.513
0.849,0.402,-0.529,22.278,-44.983,-26.55
0.832,0.399,-0.542,27.954,-64.087,-32.166
0.807,0.393,-0.528,30.151,-80.017,-36.377
0.794,0.396,-0.495,29.541,-115.112,-47.424
0.792,0.359,-0.418,28.198,-129.211,-53.406
0.803,0.333,-0.398,31.982,-144.165,-56.946
0.203,-0.728,2.189,-121.155,341.125,118.164
-0.002,-0.81,2.362,-229.37,657.227,262.451
-0.704,-0.597,2.073,-268.616,851.685,336.67
-0.826,-0.323,1.619,-271.729,1091.37,355.53
-0.684,0.253,0.922,-222.9,1117.554,308.716
-0.642,0.369,0.707,-137.146,1091.37,214.844
-0.417,0.253,0.185,-146.301,1019.226,185.364
-0.373,0.241,-0.048,-182.007,841.797,138.855
-0.44,0.182,-1.013,-183.35,781.067,110.901
-0.402,0.137,-1.646,-137.329,555.664,60.12
-0.274,0.177,-2.051,-88.501,403.87,39.734
-0.198,0.246,-1.908,5.92,176.697,-4.456
0.092,0.284,-1.513,31.189,106.079,-22.278
0.272,0.334,-1.371,40.222,3.784,-33.325
0.563,0.482,-1.096,37.476,-34.607,-29.846
0.61,0.544,-0.976,36.621,-67.322,-13.062
0.56,0.584,-0.816,40.588,-66.467,-6.104
0.528,0.542,-0.754,51.636,-54.932,-5.615
0.509,0.43,-0.701,55.298,-53.711,-10.559
0.518,0.365,-0.676,53.711,-72.021,-20.386
0.575,0.26,-0.572,43.03,-89.416,-21.973
0.593,0.269,-0.529,15.93,-121.46,-21.423
0.631,0.314,-0.461,11.169,-123.962,-21.24
0.656,0.338,-0.451,20.569,-100.342,-18.677
0.701,0.403,-0.497,25.208,-89.233,-20.02
0.726,0.422,-0.531,28.137,-87.769,-27.405
0.75,0.43,-0.604,29.053,-95.459,-32.776
0.76,0.417,-0.631,27.1,-123.84,-45.593
0.79,0.398,-0.658,21.545,-144.653,-51.453
0.802,0.388,-0.653,12.085,-193.054,-59.387
0.18,-0.422,1.784,-91.919,496.704,128.174
-0.055,-0.346,1.711,-110.535,778.503,242.676
-0.528,-0.166,1.6,-114.136,898.865,278.564
-0.649,-0.074,1.457,-132.263,1044.25,297.241
-0.411,0.02,0.751,-140.503,1048.279,282.288
-0.242,0.151,0.357,-129.395,944.58,225.281
-0.064,0.296,-0.215,-114.746,877.197,178.833
0.088,0.104,-0.598,-125.366,716.98,111.694
0.346,-0.053,-1.733,-140.015,587.219,110.291
0.324,0.095,-2.064,-93.811,276.001,104.553
0.267,0.333,-1.837,-42.603,161.377,82.397
0.321,0.416,-1.575,24.292,45.898,38.757
0.479,0.569,-1.162,36.438,13.184,24.719
0.53,0.578,-0.986,42.053,-37.781,6.531
0.572,0.498,-0.739,37.964,-55.603,3.906
0.553,0.49,-0.694,31.555,-69.763,4.883
0.523,0.474,-0.623,33.752,-71.411,0.854
0.532,0.426,-0.539,38.269,-67.81,-9.949
0.556,0.362,-0.418,35.034,-60.791,-14.099
0.57,0.344,-0.412,22.156,-50.903,-25.208
0.655,0.291,-0.456,15.564,-52.307,-29.846
0.701,0.304,-0.482,9.338,-58.289,-31.25
0.781,0.338,-0.539,8.972,-61.096,-32.532
0.822,0.344,-0.581,8.85,-66.589,-35.095
0.896,0.346,-0.619,12.207,-88.379,-38.269
0.914,0.356,-0.611,14.587,-100.342,-36.987
0.904,0.364,-0.567,13.733,-126.038,-35.889
0.899,0.346,-0.547,13.062,-141.663,-36.987
0.896,0.317,-0.506,19.531,-175.354,-34.546
0.88,0.311,-0.465,23.682,-192.444,-31.86
0.459,-0.862,1.987,-10.742,373.718,179.932
0.26,-0.89,1.928,-38.574,653.564,360.84
0.022,-0.749,1.696,-15.991,781.311,441.956
-0.04,-0.595,1.734,10.254,920.349,539.795
-0.045,-0.404,1.607,-9.338,956.055,553.467
-0.138,-0.207,1.241,-86.426,948.242,521.545
-0.208,0.223,0.3,-97.717,880.554,466.125
-0.147,0.26,-0.046,-91.797,701.538,360.84
-0.206,0.381,-0.992,-100.647,603.21,320.679
-0.244,0.455,-1.38,-97.168,358.643,215.454
-0.188,0.489,-1.461,-79.956,240.845,155.457
-0.098,0.516,-1.265,-33.325,103.821,74.951
0.128,0.651,-0.835,-17.883,74.646,51.941
0.239,0.71,-0.699,-12.451,38.696,19.409
0.399,0.797,-0.664,-18.677,21.484,5.859
0.469,0.779,-0.705,-25.635,-19.348,-15.991
0.548,0.697,-0.708,-17.944,-29.602,-17.273
0.557,0.67,-0.696,4.639,-23.315,-15.259
0.59,0.571,-0.65,12.39,-20.386,-15.808
0.6,0.529,-0.61,14.893,-26.489,-18.799
0.62,0.449,-0.536,10.925,-33.081,-22.522
0.642,0.413,-0.527,4.272,-45.471,-28.503
0.669,0.422,-0.512,5.554,-48.645,-29.419
0.682,0.437,-0.495,8.972,-48.645,-34.424
0.741,0.424,-0.494,5.676,-52.917,-38.147
0.771,0.424,-0.501,-7.019,-77.759,-40.283
0.81,0.432,-0.488,-12.939,-91.309,-39.734
0.82,0.44,-0.48,-18.494,-102.539,-35.339
0.794,0.498,-0.483,-16.785,-100.159,-34.729
0.776,0.513,-0.491,-6.592,-94.788,-44.861
0.251,-0.574,1.865,-19.958,466.797,190.43
0.192,-0.614,1.886,-60.73,685.181,308.228
-0.13,-0.543,1.763,-80.139,795.044,370.85
-0.267,-0.18,1.237,-87.28,980.591,428.345
-0.156,-0.051,0.872,-98.999,994.385,411.621
-0.062,0.128,0.22,-157.837,850.83,340.759
-0.088,0.19,-0.059,-178.101,761.597,303.65
-0.131,0.227,-0.74,-169.617,630.31,240.051
-0.147,0.226,-1.067,-150.757,568.237,211.609
-0.199,0.358,-1.488,-129.15,393.494,153.137
-0.16,0.428,-1.466,-84.534,224.487,89.478
0.023,0.506,-1.181,-60.608,177.185,64.331
0.117,0.547,-1.085,-41.199,117.554,34.851
0.267,0.633,-1.033,-37.903,87.28,26.001
0.322,0.655,-1.036,-22.522,29.297,9.033
0.388,0.646,-0.99,-9.277,9.338,0.671
0.423,0.592,-0.943,5.798,-1.648,-8.301
0.533,0.441,-0.85,27.344,-14.709,-21.606
0.57,0.398,-0.793,31.372,-26.062,-22.095
0.59,0.366,-0.656,30.579,-51.208,-18.799
0.592,0.363,-0.606,28.259,-56.946,-19.043
0.62,0.365,-0.594,22.644,-55.603,-23.193
0.645,0.365,-0.619,19.958,-54.199,-25.33
0.685,0.383,-0.673,16.479,-62.622,-27.527
0.693,0.395,-0.679,16.235,-72.266,-28.625
0.702,0.397,-0.675,18.677,-87.097,-29.846
0.723,0.407,-0.67,19.653,-89.661,-28.015
0.721,0.426,-0.678,20.02,-94.482,-24.292
0.701,0.457,-0.688,21.179,-99.67,-25.513
0.691,0.452,-0.676,24.292,-116.943,-31.494
-0.084,-0.654,2.228,-101.746,435.547,148.437
-0.294,-0.734,2.233,-152.161,849.853,348.206
-0.891,-0.425,1.975,-141.541,1042.969,429.077
-1.069,-0.197,1.792,-115.173,1248.169,439.88
-0.841,-0.011,1.068,-138.916,1223.572,398.682
-0.675,0.094,0.498,-210.571,1010.681,311.707
-0.264,0.139,-1.102,-219.727,878.662,262.573
-0.119,0.111,-1.897,-166.626,590.271,177.002
-0.15,0.22,-2.68,-125.366,417.114,138.55
-0.153,0.33,-2.539,-37.903,105.286,57.373
0.08,0.468,-1.697,-0.305,16.357,21.973
0.291,0.483,-1.254,38.635,-55.603,-16.785
0.579,0.532,-0.67,39.063,-61.768,-16.724
0.616,0.597,-0.55,28.687,-47.485,-3.54
0.62,0.619,-0.494,25.391,-37.72,-1.099
0.625,0.583,-0.498,22.217,-23.315,-3.906
0.636,0.479,-0.494,19.226,-23.987,-7.751
0.641,0.408,-0.47,13.489,-32.043,-13.55
0.653,0.337,-0.429,12.085,-31.982,-13.733
0.668,0.325,-0.423,7.996,-31.189,-15.93
0.738,0.297,-0.473,3.052,-33.386,-17.822
0.776,0.311,-0.526,-3.052,-44.678,-21.729
0.843,0.355,-0.564,-3.967,-54.626,-23.987
0.867,0.368,-0.564,-11.658,-75.745,-28.503
0.919,0.352,-0.594,-14.954,-85.693,-29.846
0.94,0.336,-0.587,0.366,-93.079,-18.738
0.912,0.362,-0.562,8.728,-91.064,-10.437
0.888,0.384,-0.567,10.925,-107.483,-6.775
0.836,0.394,-0.538,11.963,-123.84,-9.216
0.815,0.388,-0.5,9.094,-159.668,-17.273
-0.117,-0.67,1.855,-126.343,721.558,196.045
-0.068,-0.614,1.642,-108.887,934.997,249.329
0.163,-0.18,1.038,-56.58,984.802,239.624
0.207,0.024,0.86,80.75,1026.428,207.092
0.103,0.185,0.465,96.13,1025.879,205.383
0.037,0.167,0.196,12.207,885.315,212.097
-0.073,0.241,-0.38,-30.029,761.902,202.026
-0.079,0.322,-0.687,-20.325,523.987,139.832
0.118,0.207,-0.911,5.92,417.419,113.159
0.161,0.215,-0.875,-1.77,232.117,99.121
0.205,0.422,-0.858,-26.855,161.56,86.731
0.285,0.482,-0.886,-45.166,82.397,53.772
0.427,0.469,-0.968,-37.598,63.721,43.274
0.468,0.447,-1.01,-18.066,34.79,29.236
0.531,0.455,-1.079,-9.033,18.677,22.217
0.559,0.459,-1.069,8.362,-20.142,7.751
0.594,0.412,-0.935,15.381,-37.231,1.465
0.6,0.377,-0.839,22.461,-48.767,-2.441
0.604,0.342,-0.656,31.921,-56.458,-6.592
0.611,0.328,-0.58,30.762,-57.739,-10.559
0.649,0.313,-0.504,27.832,-52.795,-20.02
0.675,0.31,-0.492,29.297,-48.645,-24.17
0.705,0.302,-0.479,26.001,-50.171,-29.236
0.764,0.268,-0.454,22.522,-51.208,-29.907
0.784,0.269,-0.456,17.761,-44.495,-29.114
0.814,0.306,-0.489,16.235,-40.71,-29.114
0.827,0.318,-0.516,16.541,-39.795,-31.067
0.848,0.305,-0.554,17.151,-43.274,-32.532
0.847,0.298,-0.564,14.771,-57.861,-32.837
0.839,0.295,-0.585,10.986,-70.679,-32.776
-0.056,-0.678,2.158,-52.612,354.37,69.824
-0.162,-0.734,2.258,-83.496,697.143,193.115
-0.652,-0.579,2.318,-101.624,866.089,259.46
-0.831,-0.383,1.75,-158.142,1096.68,301.331
-0.716,-0.167,1.34,-115.295,1135.498,271.545
-0.428,0.178,0.595,-82.031,1102.234,242.554
-0.277,0.148,0.304,-71.472,1033.691,211.426
-0.139,0.058,-0.432,-95.032,847.229,178.04
-0.097,0.064,-1.016,-112.122,738.22,165.527
-0.01,0.025,-1.581,-120.361,430.908,131.531
0.089,0.061,-1.973,-97.656,256.836,117.615
0.119,0.191,-1.76,-18.86,24.475,76.599
0.284,0.448,-1.163,13.55,-13.794,53.467
0.388,0.502,-0.97,42.48,-13.672,19.897
0.566,0.51,-0.773,44.922,-7.507,10.62
0.619,0.52,-0.724,40.1,-14.038,0.916
0.649,0.493,-0.597,34.729,-26.672,-3.479
0.634,0.462,-0.492,30.334,-42.114,-13.55
0.612,0.382,-0.276,33.997,-28.442,-18.921
0.634,0.342,-0.254,29.358,9.644,-31.921
0.724,0.247,-0.356,21.484,15.381,-37.109
0.775,0.202,-0.412,5.249,1.831,-36.682
0.847,0.205,-0.511,-3.052,-11.719,-33.936
0.877,0.228,-0.54,-11.047,-34.241,-30.396
0.927,0.261,-0.567,-9.46,-38.818,-27.649
0.938,0.274,-0.574,-2.197,-38.757,-20.63
0.927,0.306,-0.61,1.404,-38.452,-19.165
0.908,0.318,-0.62,10.803,-46.753,-22.156
0.885,0.267,-0.586,15.808,-53.894,-24.109
0.884,0.234,-0.574,23.56,-67.749,-19.958
0.227,-0.82,1.858,-39.307,353.394,212.769
0.139,-0.942,1.946,-140.503,544.067,355.103
0.104,-1.209,1.871,-186.523,637.878,418.152
0.08,-1.142,1.793,-235.596,803.467,538.391
-0.351,-0.387,1.586,-248.352,874.268,553.101
-0.561,-0.014,1.222,-261.963,947.51,446.045
-0.454,0.172,0.389,-255.249,930.298,366.699
-0.34,0.141,0.15,-227.783,825.561,261.78
-0.3,0.197,-0.286,-218.323,767.395,226.929
-0.267,0.207,-0.637,-208.679,622.314,159.912
-0.153,0.233,-1.458,-192.383,511.23,126.526
-0.102,0.266,-1.686,-111.816,259.155,62.988
0.042,0.314,-1.56,-67.444,159.241,36.743
0.147,0.388,-1.362,-24.719,42.114,4.333
0.365,0.554,-1.134,-20.813,12.878,-4.15
0.432,0.599,-1.087,-6.775,-20.325,-9.644
0.483,0.602,-0.981,5.859,-28.381,-9.644
0.495,0.566,-0.924,27.344,-38.574,-8.362
0.491,0.48,-0.791,35.217,-42.236,-8.118
0.485,0.436,-0.698,41.382,-45.593,-12.329
0.511,0.342,-0.521,37.842,-43.152,-15.564
0.535,0.314,-0.478,18.677,-37.842,-20.63
0.577,0.299,-0.474,11.902,-32.715,-20.569
0.591,0.315,-0.499,7.324,-20.203,-19.104
0.647,0.349,-0.562,5.554,-19.897,-20.874
0.684,0.359,-0.591,0.244,-26.978,-23.621
0.74,0.387,-0.688,-3.662,-32.471,-24.414
0.755,0.409,-0.758,-7.507,-40.955,-25.391
0.766,0.445,-0.87,-10.254,-73.792,-29.663
0.769,0.44,-0.895,-1.709,-126.892,-35.522
0.44,-0.744,1.766,-50.476,282.654,157.959
0.468,-0.878,1.896,-141.663,455.139,302.185
0.269,-0.934,1.77,-183.533,557.861,388.916
0.123,-0.758,1.629,-149.597,781.555,496.338
-0.115,-0.219,1.462,-108.948,871.826,503.418
-0.249,0.059,1.258,-75.623,959.473,444.58
-0.159,0.241,0.631,-92.407,937.5,400.94
-0.075,0.222,0.367,-167.297,783.325,330.688
-0.17,0.282,-0.005,-190.43,704.59,296.082
-0.306,0.33,-0.277,-195.19,592.957,212.952
-0.403,0.336,-1.025,-186.035,516.907,170.837
-0.392,0.368,-1.274,-134.155,318.909,101.318
-0.28,0.523,-1.426,-99.304,234.802,69.458
-0.172,0.617,-1.409,-36.255,131.226,16.357
0.086,0.709,-1.289,-12.207,99.182,-1.77
0.215,0.704,-1.201,2.319,69.275,-13.123
0.389,0.643,-0.995,4.211,5.371,-18.372
0.417,0.619,-0.898,-0.061,-19.958,-15.808
0.425,0.576,-0.768,5.188,-37.109,-12.146
0.433,0.539,-0.716,12.817,-37.354,-13.367
0.466,0.43,-0.585,19.836,-37.598,-19.104
0.475,0.406,-0.547,17.273,-32.41,-21.057
0.484,0.412,-0.547,7.935,-15.076,-26.245
0.544,0.389,-0.603,4.822,-12.817,-31.311
0.6,0.349,-0.636,-5.005,-28.381,-29.297
0.635,0.412,-0.682,-7.202,-35.889,-22.644
0.627,0.462,-0.693,-5.676,-37.415,-18.127
0.61,0.504,-0.728,-5.981,-35.95,-19.775
0.6,0.5,-0.767,-1.709,-34.668,-22.888
0.567,0.507,-0.811,5.31,-34.302,-23.193
