aX,aY,aZ,gX,gY,gZ
0.634,1.398,1.229,39.490,18.494,41.382
0.706,1.888,1.276,25.146,39.246,77.515
0.545,2.724,1.243,-1.831,36.133,89.783
0.298,2.947,1.174,-74.646,-2.930,74.463
-0.158,2.882,0.857,-112.366,-35.461,41.443
-0.263,2.583,0.619,-141.602,-114.990,-47.546
-0.369,1.457,0.410,-109.802,-133.423,-79.712
-0.374,0.683,0.546,64.392,-40.344,-83.740
-0.296,-0.789,0.866,135.620,39.856,-63.049
-0.283,-1.318,0.845,155.151,76.599,-52.917
-0.337,-2.036,0.765,112.305,7.019,-67.505
-0.422,-2.166,0.662,22.827,-184.204,-96.191
-0.404,-2.297,0.850,50.110,-206.848,-107.300
-0.227,-2.272,1.055,160.461,-66.040,-121.033
0.302,-1.977,1.202,170.288,2.747,-120.361
0.510,-1.784,1.118,98.389,31.128,-82.642
0.699,-1.431,0.955,57.373,11.719,-47.302
0.614,-1.237,0.956,-9.705,-42.053,39.368
0.087,-0.779,0.925,-40.344,-61.584,74.219
-0.183,-0.564,0.842,-68.970,-54.993,100.342
-0.460,-0.243,0.614,-61.890,-36.926,94.666
-0.508,-0.121,0.541,-31.555,-21.484,69.458
-0.518,0.029,0.588,-12.817,-25.452,51.758
-0.481,0.047,0.683,26.123,-29.724,12.756
-0.362,-0.027,0.920,40.771,-25.635,-1.648
-0.301,-0.083,1.018,46.326,-6.042,-8.057
-0.192,-0.168,1.076,41.321,8.240,-5.676
-0.138,-0.215,1.077,38.696,34.851,-5.920
-0.045,-0.335,1.108,38.879,45.532,-6.775
0.005,-0.369,1.085,32.227,68.298,-2.686
0.109,1.554,1.400,-18.005,1.404,-3.479
0.082,1.857,1.418,-39.185,10.132,-7.996
0.065,2.276,1.292,-57.739,10.559,-17.334
0.074,2.284,1.208,-101.501,-20.325,-49.561
-0.073,2.054,1.033,-112.793,-38.208,-59.448
-0.193,1.904,0.913,-104.492,-47.546,-61.523
-0.454,1.295,0.694,-98.267,-43.335,-57.617
-0.691,0.210,0.291,-43.396,-6.470,-46.082
-0.711,-0.488,0.336,52.063,27.527,-61.584
-0.554,-1.803,0.687,168.640,46.997,-107.788
-0.423,-2.255,0.910,107.666,-19.836,-115.295
-0.234,-2.522,1.191,48.889,-61.890,-119.995
0.183,-2.568,1.064,93.628,34.668,-128.784
0.417,-2.481,0.799,135.742,128.540,-136.047
0.873,-2.143,0.643,103.333,73.486,-119.751
0.945,-1.851,0.684,37.781,-28.992,-47.729
0.708,-1.265,0.849,21.545,-56.580,-10.864
0.486,-1.028,0.973,-4.150,-102.966,32.410
0.074,-0.636,1.055,-13.611,-98.816,40.466
-0.049,-0.463,0.973,-24.536,-53.528,41.748
-0.158,-0.222,0.743,-25.269,-43.518,36.682
-0.193,-0.150,0.723,-12.695,-50.781,28.687
-0.238,-0.055,0.886,-5.676,-53.040,24.414
-0.232,-0.035,0.988,3.723,-44.495,12.207
-0.186,-0.033,1.159,9.033,-33.508,5.981
-0.155,-0.043,1.193,20.630,1.770,-4.150
-0.055,-0.091,1.132,24.780,18.188,-7.568
0.000,-0.119,1.076,22.888,28.870,-9.460
0.065,-0.158,0.986,18.372,23.254,-9.949
0.090,-0.190,0.981,13.428,11.475,-9.460
0.438,1.318,1.419,-92.407,10.254,-12.756
0.333,1.734,1.330,-141.174,16.235,-5.493
0.168,2.329,1.071,-159.546,10.559,-15.869
0.130,2.405,0.953,-177.612,-19.104,-54.810
0.059,2.234,0.606,-180.908,-39.429,-70.679
-0.003,2.078,0.376,-162.537,-94.788,-94.604
-0.175,1.528,0.104,-129.700,-122.620,-108.521
-0.321,1.055,0.152,-17.517,-105.957,-126.465
-0.388,-0.151,0.354,41.321,-37.170,-126.709
-0.411,-0.613,0.451,110.596,83.313,-54.016
-0.729,-1.168,0.371,118.713,106.934,-42.786
-0.560,-1.397,0.357,80.322,-163.635,-18.494
-1.091,-1.831,1.130,21.973,-417.541,25.146
-1.244,-1.853,1.668,69.153,-380.554,-65.125
-0.716,-1.783,2.136,174.561,-135.803,-106.506
-0.314,-1.689,1.935,233.093,220.581,-138.916
0.517,-1.437,1.055,172.058,255.676,-136.902
0.830,-1.313,0.603,54.687,153.198,-83.801
0.920,-1.027,0.523,28.992,54.626,-42.297
0.695,-0.854,0.901,-10.803,-116.028,26.245
0.156,-0.542,1.401,-32.654,-127.502,44.006
0.040,-0.415,1.293,-48.462,-26.184,59.692
0.001,-0.197,0.803,-43.640,15.747,60.730
-0.007,-0.103,0.670,-36.621,11.108,50.781
-0.045,0.005,0.706,-30.151,-5.859,41.443
-0.057,0.025,0.774,-3.418,-12.939,25.452
-0.075,0.045,0.888,11.536,-8.850,20.325
-0.082,0.039,0.943,23.499,-6.348,16.052
-0.075,-0.005,1.073,32.288,-5.493,12.451
-0.073,-0.020,1.128,27.527,-3.357,15.503
0.259,1.502,1.231,-8.972,8.850,-32.104
0.158,1.909,1.271,-0.366,24.719,-20.142
0.092,2.074,1.202,1.404,36.804,-16.663
0.048,2.176,1.105,-10.254,41.626,-39.063
-0.030,2.175,0.845,-28.015,32.104,-57.983
-0.119,2.080,0.680,-72.388,1.770,-77.209
-0.475,1.672,0.346,-82.214,-4.089,-79.407
-0.755,1.220,0.108,-27.954,78.491,-117.249
-0.815,-0.119,-0.285,33.081,121.826,-128.113
-1.052,-0.808,-0.209,147.888,126.953,-130.554
-0.813,-1.990,0.117,178.345,98.389,-161.438
-0.667,-2.658,0.482,85.693,-302.795,-69.641
-0.808,-3.222,1.332,32.471,-414.673,-93.506
-0.316,-3.265,1.838,156.982,-151.428,-208.069
0.663,-2.712,2.513,182.434,1.526,-198.975
1.001,-2.245,2.276,62.378,154.236,-119.629
1.367,-1.614,0.825,5.371,184.326,-65.125
1.219,-1.333,0.327,-32.776,87.769,55.725
0.429,-0.751,0.532,-40.710,-9.827,96.069
0.055,-0.529,0.829,-65.369,-110.718,111.084
-0.279,-0.206,0.990,-70.618,-96.375,98.999
-0.305,-0.094,0.917,-57.251,-38.513,65.674
-0.236,0.035,0.811,-45.898,-21.057,49.561
-0.192,0.067,0.812,-25.879,-6.165,23.071
-0.129,0.093,0.918,-18.066,-5.554,9.888
-0.096,0.078,1.001,-11.108,-10.986,-11.108
-0.031,-0.001,1.127,-9.277,-10.803,-14.526
0.002,-0.046,1.151,-0.183,4.272,-9.521
0.080,-0.124,1.105,4.395,15.381,-6.226
0.125,-0.160,1.041,10.925,29.297,-5.737
0.127,1.486,1.276,-32.532,-7.385,2.808
0.058,1.819,1.275,-30.823,-4.089,-11.902
0.063,2.080,1.371,-32.104,-18.616,-41.565
0.095,2.033,1.413,-34.546,-46.082,-96.619
0.111,1.821,1.333,-31.311,-46.814,-108.154
0.101,1.683,1.230,-20.569,-34.790,-114.014
0.013,1.178,1.009,-15.747,-30.090,-114.075
-0.094,0.893,0.931,-5.249,-11.719,-110.352
-0.342,0.310,0.664,-14.404,0.549,-114.441
-0.479,-0.068,0.460,-55.298,-14.465,-125.488
-0.830,-0.887,0.160,-53.223,-35.767,-129.822
-0.978,-1.317,0.150,43.457,-43.030,-153.809
-1.130,-2.025,0.270,108.276,-22.095,-167.297
-1.102,-2.284,0.317,148.865,-19.226,-191.528
-0.787,-2.529,0.579,124.573,-43.396,-196.045
-0.476,-2.525,0.719,101.562,-33.020,-188.721
0.380,-2.253,0.904,115.601,6.226,-168.213
0.715,-2.017,0.890,100.220,64.636,-76.233
0.917,-1.585,0.843,67.078,52.185,-24.536
0.785,-1.415,0.921,-1.526,-24.780,62.622
0.299,-1.084,1.074,-26.428,-49.377,96.313
0.080,-0.896,1.051,-54.321,-46.204,137.207
-0.174,-0.518,0.930,-59.143,-37.476,141.235
-0.227,-0.363,0.898,-55.969,-29.846,121.460
-0.236,-0.132,0.908,-46.997,-26.245,103.943
-0.213,-0.057,0.937,-22.217,-14.587,70.374
-0.173,0.023,1.030,-13.672,-11.169,56.335
-0.159,0.037,1.080,-13.611,-15.503,32.410
-0.123,0.008,1.147,-16.052,-18.127,24.414
-0.099,-0.026,1.163,-9.033,-6.409,15.137
0.223,1.222,1.413,-32.227,9.155,-32.959
0.342,1.520,1.422,-58.899,10.010,-49.805
0.387,2.085,1.302,-63.293,12.512,-50.354
0.226,2.219,1.194,-31.372,26.855,-51.392
-0.106,2.251,1.027,-8.667,34.607,-64.636
-0.142,2.210,0.982,-21.240,35.095,-117.126
-0.255,1.752,0.575,-65.125,23.315,-136.108
-0.451,1.250,0.156,-81.848,-10.193,-146.240
-0.448,-0.373,-0.258,-3.784,-15.137,-148.987
-0.212,-1.260,-0.022,120.361,2.014,-80.566
-0.450,-2.054,0.251,79.590,-29.602,-22.827
-0.763,-2.154,0.391,-7.385,-176.758,-47.729
-0.661,-2.526,1.134,15.076,-181.641,-111.450
-0.307,-2.700,1.346,92.834,-12.085,-168.274
0.422,-2.446,1.177,103.760,58.533,-163.879
0.700,-2.101,0.966,76.904,77.148,-125.793
0.884,-1.490,0.561,54.810,53.223,-88.928
0.837,-1.317,0.582,32.471,-37.109,-23.743
0.564,-1.117,1.065,27.405,-73.059,-0.610
0.402,-1.019,1.217,0.610,-71.045,38.330
0.086,-0.710,1.112,-16.113,-51.453,54.626
-0.057,-0.533,0.980,-32.349,-22.034,64.026
-0.205,-0.276,0.808,-30.273,-15.930,56.091
-0.217,-0.205,0.801,-17.334,-14.648,27.771
-0.187,-0.182,0.920,-8.423,-16.357,11.414
-0.147,-0.225,1.015,13.123,-8.850,-12.817
-0.024,-0.378,1.131,22.400,3.479,-14.343
0.033,-0.439,1.127,30.273,32.471,4.211
0.110,-0.505,1.039,29.419,43.030,14.954
0.142,-0.540,0.980,25.879,47.424,21.973
0.305,1.387,1.118,4.944,-9.399,-57.373
0.383,1.553,1.146,15.808,-9.766,-69.763
0.483,1.808,1.210,5.737,-15.015,-75.134
0.437,1.899,1.206,-27.588,-13.306,-63.416
0.174,1.903,0.915,-44.922,-10.498,-57.068
0.055,1.794,0.689,-55.664,-47.668,-68.604
-0.135,1.300,0.382,-44.495,-76.843,-72.998
-0.309,0.888,0.289,5.249,-77.209,-39.612
-0.766,-0.202,0.070,34.363,-41.992,-18.311
-0.927,-0.802,-0.077,74.890,0.427,-40.344
-0.999,-1.974,-0.140,88.440,-51.514,-83.130
-1.029,-2.537,0.155,129.883,-236.328,-151.917
-0.822,-3.335,1.335,161.499,-257.385,-154.236
-0.496,-3.300,1.943,172.363,-128.784,-146.790
0.409,-2.631,2.700,131.287,-30.273,-154.846
0.867,-2.277,2.191,13.306,235.840,-122.131
1.404,-1.661,0.121,-1.587,314.758,-57.617
1.199,-1.305,-0.318,15.625,137.146,96.741
0.075,-0.668,0.489,1.404,-24.841,134.583
-0.410,-0.465,1.032,-29.846,-140.442,126.404
-0.757,-0.185,1.229,-26.489,-85.876,107.178
-0.677,-0.088,1.017,-6.470,31.982,64.209
-0.416,0.012,0.686,-1.282,40.955,43.701
-0.330,0.010,0.697,6.836,0.732,4.883
-0.204,-0.089,0.955,13.672,-15.625,-12.634
-0.140,-0.164,1.096,23.132,-12.573,-31.067
-0.041,-0.291,1.238,22.339,1.587,-30.579
-0.002,-0.324,1.217,15.381,36.865,-20.020
0.091,-0.343,1.075,12.756,52.002,-12.939
0.132,-0.348,1.002,11.230,69.885,2.563
0.366,1.518,1.344,-0.793,1.770,-25.696
0.322,1.823,1.368,11.963,36.194,5.310
0.025,2.366,1.151,-5.676,55.786,9.827
-0.099,2.465,0.969,-65.002,24.780,-44.189
-0.229,2.290,0.721,-75.256,-18.433,-88.196
-0.253,2.031,0.654,-35.828,-59.692,-147.766
-0.425,1.205,0.482,-13.062,-53.284,-146.423
-0.642,0.620,0.308,12.939,-26.733,-121.155
-0.901,-0.831,-0.072,62.927,-3.967,-129.883
-0.799,-1.618,-0.057,210.693,54.932,-179.321
-0.634,-2.708,0.208,209.045,35.217,-188.843
-0.711,-2.904,0.364,75.684,-141.357,-193.542
-0.447,-3.078,0.914,58.411,-184.326,-203.613
-0.106,-3.061,1.261,118.164,-86.792,-184.021
0.700,-2.540,1.673,120.850,-22.522,-153.015
1.020,-2.183,1.527,52.917,80.688,-51.270
1.081,-1.608,0.777,23.132,103.333,14.099
0.796,-1.361,0.646,-10.437,31.067,119.629
0.044,-0.856,0.894,-31.006,-23.560,142.151
-0.188,-0.664,0.995,-51.453,-55.054,144.470
-0.313,-0.400,0.933,-66.284,-38.208,122.803
-0.294,-0.296,0.860,-51.331,-3.235,97.473
-0.260,-0.112,0.808,-42.297,-1.038,85.144
-0.256,-0.040,0.827,-32.776,-4.700,71.777
-0.240,0.035,0.909,-7.324,-8.545,39.978
-0.218,0.041,0.948,7.812,-6.042,23.682
-0.142,-0.040,1.019,35.278,7.141,-1.038
-0.084,-0.101,1.053,41.992,18.005,-5.310
0.028,-0.166,0.989,31.494,42.358,9.155
0.052,-0.179,0.903,21.545,49.744,21.973
-0.063,2.116,1.221,-17.273,-3.906,-38.940
-0.205,2.409,1.080,-26.428,6.348,-72.998
-0.245,2.525,0.811,-20.996,-9.827,-112.122
-0.202,2.227,0.912,19.531,-57.983,-179.626
-0.307,1.980,0.970,37.231,-36.072,-177.734
-0.566,1.188,0.709,15.747,-7.812,-166.382
-0.672,0.599,0.391,-29.602,6.531,-161.743
-0.887,-0.663,0.074,-4.944,-9.399,-180.786
-1.056,-1.204,0.210,56.580,-85.144,-235.107
-1.351,-2.543,0.646,46.997,-151.794,-250.916
-1.197,-3.223,0.935,98.938,-171.875,-241.150
-0.301,-3.725,1.434,165.527,-80.322,-210.449
0.223,-3.427,1.521,202.637,23.926,-175.110
1.168,-2.505,1.110,115.662,112.305,-124.634
1.406,-2.148,0.689,39.001,96.313,-85.815
0.904,-1.485,0.458,-42.542,-4.456,46.021
0.433,-1.208,0.741,-44.067,-55.847,97.229
-0.251,-0.742,1.070,-44.922,-69.458,136.292
-0.377,-0.541,0.977,-48.096,-43.518,133.423
-0.396,-0.358,0.821,-47.852,-5.371,107.300
-0.394,-0.052,0.674,-41.321,-2.258,90.942
-0.398,0.033,0.711,-14.099,0.122,52.124
-0.344,0.018,0.894,4.395,5.737,28.687
-0.275,-0.066,0.974,44.861,28.748,-12.329
-0.079,-0.274,1.054,61.218,42.175,-18.982
0.010,-0.355,1.065,57.556,50.049,1.099
0.094,-0.442,1.039,39.124,42.786,20.508
0.076,-0.445,1.009,9.338,35.522,52.979
0.049,-0.444,0.929,9.033,44.189,59.692
0.099,-0.444,0.874,25.208,73.242,62.927
-0.054,1.771,1.249,-16.602,2.625,-63.354
-0.088,1.884,1.205,-26.001,5.249,-105.347
-0.114,1.940,1.032,-30.579,3.662,-126.404
-0.117,1.923,0.910,-33.508,-1.221,-156.189
-0.098,1.779,0.681,-28.381,-7.935,-168.884
-0.109,1.659,0.612,-18.494,-21.606,-175.293
-0.269,1.286,0.408,-26.978,-24.963,-161.499
-0.428,0.960,0.229,-73.120,-53.528,-118.530
-0.894,-0.087,-0.284,-89.661,-96.619,-105.835
-1.150,-0.797,-0.410,22.949,-186.218,-126.221
-1.329,-2.347,0.074,170.288,-159.424,-154.236
-1.185,-2.976,0.478,385.193,12.634,-187.073
-0.801,-3.420,1.161,336.792,5.066,-198.547
-0.511,-3.287,1.624,106.567,-195.923,-261.047
0.659,-2.768,2.406,65.552,-169.434,-262.268
1.240,-2.471,2.021,61.340,171.387,-120.117
1.551,-1.843,0.527,49.255,253.540,-20.752
1.247,-1.534,0.317,-9.277,72.998,126.343
0.283,-1.016,0.867,-45.654,-37.109,162.170
-0.077,-0.807,1.055,-90.088,-69.763,175.964
-0.338,-0.452,0.917,-93.933,-35.889,164.001
-0.334,-0.280,0.771,-80.322,8.911,128.052
-0.276,0.015,0.650,-65.857,14.038,107.544
-0.247,0.096,0.679,-27.283,11.108,57.617
-0.181,0.105,0.796,-3.906,8.545,31.433
-0.145,0.042,0.884,45.959,12.451,-5.249
-0.008,-0.135,1.143,60.242,22.644,-7.996
0.049,-0.176,1.219,46.814,55.298,22.278
0.060,-0.166,1.118,31.799,66.956,36.377
0.076,-0.174,1.032,12.939,59.814,31.311
-0.174,1.474,1.355,-67.505,7.141,-89.416
-0.291,1.754,1.402,-37.048,48.828,-90.027
-0.569,2.221,1.385,-14.587,76.660,-94.788
-0.623,2.278,1.283,-15.869,107.605,-153.381
-0.455,2.021,0.928,-49.561,91.309,-201.172
-0.369,1.799,0.776,-116.821,14.160,-270.020
-0.332,1.325,0.518,-127.075,-18.127,-276.917
-0.377,0.950,0.355,-107.910,-53.650,-242.126
-0.454,-0.286,0.135,-68.359,-49.988,-213.806
-0.490,-0.899,0.175,54.932,16.235,-148.987
-0.749,-1.737,0.332,76.172,15.564,-135.254
-0.844,-2.259,0.429,23.865,-171.265,-169.189
-0.414,-3.263,1.219,48.340,-242.615,-184.631
-0.034,-3.293,1.610,169.434,-121.948,-131.531
0.458,-2.548,1.735,174.805,-37.598,-89.416
0.592,-2.161,1.635,74.036,21.423,-50.354
0.726,-1.573,1.133,17.822,34.546,-29.663
0.642,-1.279,0.797,-25.146,39.673,40.222
0.308,-0.820,0.599,-18.555,16.968,66.223
0.152,-0.674,0.736,-2.502,-36.682,82.458
-0.031,-0.455,0.995,0.793,-43.457,79.468
-0.068,-0.364,1.007,-4.333,-20.691,65.491
-0.110,-0.180,0.845,-11.475,-7.446,58.289
-0.140,-0.095,0.775,-17.029,-2.563,45.837
-0.215,0.014,0.803,-11.597,-5.615,37.598
-0.217,0.006,0.884,9.033,-4.333,9.766
-0.113,-0.102,1.056,17.822,3.906,-3.662
-0.040,-0.164,1.089,21.240,14.954,-10.742
0.048,-0.207,1.031,7.690,24.597,-6.775
0.057,-0.197,0.982,-2.869,20.569,-3.296
0.029,1.847,1.150,-26.123,33.447,-31.860
-0.011,2.311,1.159,1.587,59.204,-22.766
-0.241,2.829,0.988,-4.944,70.068,-33.752
-0.367,2.529,0.762,-40.405,34.241,-109.436
-0.334,2.220,0.669,-39.856,-0.122,-157.166
-0.197,1.438,0.589,11.780,-35.706,-213.806
-0.156,0.972,0.586,41.321,-25.452,-207.214
-0.178,0.401,0.573,58.716,27.649,-144.287
-0.348,-0.773,0.434,46.814,46.692,-119.324
-0.444,-1.285,0.323,3.296,-27.832,-127.136
-0.663,-1.996,0.492,2.014,-100.464,-138.306
-0.776,-2.138,0.669,90.149,-124.817,-141.052
-0.720,-2.311,0.786,149.170,-73.242,-150.391
-0.414,-2.478,0.792,187.195,2.380,-176.025
0.266,-2.407,0.913,156.433,4.456,-155.640
0.444,-2.093,0.931,72.571,-11.597,-85.693
0.702,-1.559,0.905,46.570,-18.188,-58.289
0.721,-1.368,0.932,8.789,-39.917,-0.854
0.484,-1.064,1.086,-10.803,-52.551,24.841
0.320,-0.936,1.100,-42.542,-42.236,68.237
-0.001,-0.577,0.935,-50.659,-20.325,85.754
-0.139,-0.362,0.804,-54.687,15.686,95.276
-0.257,-0.079,0.659,-48.645,17.395,84.045
-0.242,-0.046,0.710,-21.423,3.418,46.082
-0.160,-0.113,0.943,-3.418,2.808,29.907
-0.126,-0.146,1.032,26.062,17.639,11.841
-0.075,-0.186,1.086,32.837,22.705,8.179
-0.043,-0.222,1.102,28.015,20.752,10.376
0.011,-0.311,1.141,18.250,21.729,15.198
0.035,-0.324,1.138,9.644,27.954,19.104
0.144,1.477,1.197,-29.297,20.752,-30.457
0.157,1.769,1.182,-30.518,12.390,-38.269
0.182,2.068,1.238,-30.518,0.671,-58.167
0.178,2.031,1.312,-30.884,-2.563,-91.980
0.126,1.832,1.249,-40.710,13.489,-89.050
0.004,1.721,1.051,-75.317,50.720,-49.011
-0.442,1.419,0.394,-95.825,44.434,-41.260
-0.632,1.118,0.096,-111.267,-62.683,-85.022
-0.805,-0.126,-0.149,-72.510,-122.559,-112.305
-0.779,-1.009,-0.023,132.202,-78.918,-106.384
-0.658,-2.469,0.259,230.896,7.019,-77.393
-0.552,-2.818,0.313,233.032,-17.334,-77.026
-0.370,-2.903,1.144,147.522,-161.072,-112.488
-0.207,-2.771,1.905,43.396,-278.564,-171.326
0.445,-2.386,2.578,48.645,-156.189,-148.926
0.676,-1.993,2.074,45.593,164.795,-14.709
0.626,-1.192,0.558,32.288,223.877,48.035
0.443,-0.884,0.169,-9.888,88.318,100.769
-0.029,-0.434,0.372,-30.884,-21.851,97.046
-0.229,-0.298,0.654,-31.433,-106.384,70.007
-0.364,-0.152,0.911,-19.043,-81.787,56.824
-0.316,-0.112,0.876,-5.066,-23.621,32.471
-0.186,-0.060,0.773,-1.038,-16.113,22.522
-0.174,-0.031,0.815,11.536,-25.940,13.489
-0.214,-0.003,1.013,16.357,-29.785,11.414
-0.229,-0.033,1.129,21.362,-23.315,7.996
-0.226,-0.158,1.319,19.592,-9.705,7.019
-0.198,-0.232,1.345,1.160,27.710,8.118
-0.064,-0.359,1.288,-13.489,41.626,10.132
-0.003,-0.399,1.228,-35.339,57.251,16.663
-0.071,1.710,0.910,-25.391,-3.906,-53.711
-0.094,1.818,0.823,-16.785,-6.226,-63.538
-0.062,2.004,0.811,-3.662,-7.263,-72.144
-0.087,2.082,0.835,-20.996,-27.832,-95.276
-0.256,2.060,0.738,-52.307,-55.542,-110.413
-0.332,1.876,0.667,-74.707,-104.309,-132.446
-0.410,1.201,0.551,-41.626,-92.896,-130.249
-0.479,0.825,0.528,36.255,-28.381,-112.915
-0.735,0.085,0.358,18.616,-38.940,-115.845
-0.821,-0.415,0.241,-30.701,-183.777,-148.804
-0.784,-1.740,0.613,40.955,-222.046,-166.260
-0.749,-2.320,1.000,249.512,-116.760,-177.063
-0.677,-2.722,1.443,268.005,-62.927,-186.279
-0.418,-2.719,1.572,169.006,-59.631,-232.666
0.351,-2.420,1.596,125.488,-30.029,-226.868
0.884,-1.765,0.558,88.440,137.085,-148.132
1.083,-1.564,0.201,87.280,160.522,-110.657
1.117,-1.406,0.241,53.345,0.977,-28.564
0.672,-1.142,1.037,25.269,-84.290,9.827
0.344,-0.992,1.294,-11.108,-83.557,75.073
-0.211,-0.518,1.074,-19.409,-38.696,95.276
-0.360,-0.284,0.869,-21.057,6.226,89.416
-0.366,-0.088,0.789,-13.428,8.789,69.885
-0.297,-0.110,0.872,15.564,21.973,36.194
-0.162,-0.219,1.041,27.405,33.020,27.832
-0.106,-0.269,1.089,30.029,42.358,28.625
-0.033,-0.333,1.157,22.949,42.236,35.339
-0.010,-0.356,1.155,7.080,53.040,50.110
0.041,-0.368,1.032,5.005,66.956,55.237
0.091,-0.359,0.933,7.141,93.750,57.129
0.282,1.433,1.306,-32.166,-3.967,-11.475
0.224,1.756,1.305,-69.397,1.221,2.380
0.017,2.296,1.048,-91.553,-0.305,-2.441
-0.195,2.326,0.775,-104.553,-26.550,-48.767
-0.241,2.213,0.698,-57.373,-37.781,-101.929
-0.235,1.868,0.539,-32.959,-31.616,-120.544
-0.250,1.634,0.398,-31.128,-44.128,-146.606
-0.424,0.938,0.064,-41.138,-75.195,-153.809
-0.569,0.422,-0.002,5.798,-126.526,-151.428
-0.714,-1.071,0.245,86.548,-94.238,-147.827
-0.648,-1.889,0.363,219.971,11.047,-142.944
-0.615,-2.846,0.617,204.041,-33.813,-167.114
-0.628,-3.025,0.936,113.281,-215.332,-259.583
-0.049,-3.089,1.655,108.704,-211.060,-284.424
0.432,-2.835,1.921,112.549,-53.589,-240.906
1.311,-2.121,1.668,68.970,16.907,-195.374
1.561,-1.860,1.193,-17.639,79.224,-62.988
1.187,-1.414,0.549,-31.433,62.317,18.982
0.658,-1.127,0.591,-47.180,-30.334,135.620
-0.252,-0.614,0.850,-62.012,-65.918,150.391
-0.455,-0.414,0.831,-76.904,-76.416,143.799
-0.491,-0.091,0.610,-78.003,-45.349,105.896
-0.460,0.008,0.567,-44.067,-28.687,66.040
-0.371,0.017,0.706,-25.452,-31.555,47.058
-0.311,-0.035,0.820,4.883,-25.818,17.700
-0.219,-0.129,0.971,15.320,-13.123,10.376
-0.172,-0.171,1.003,23.010,3.113,8.118
-0.069,-0.248,1.022,32.532,33.752,17.334
-0.033,-0.270,1.021,34.607,42.725,25.024
-0.001,-0.271,1.010,26.855,47.668,34.546
0.130,1.547,1.088,-9.216,10.864,-7.080
0.079,1.731,1.103,-8.850,14.038,-10.620
-0.022,2.014,1.234,-6.348,14.160,-16.663
-0.052,2.081,1.316,-7.507,26.123,-37.048
-0.178,2.214,1.105,-23.560,41.443,-41.565
-0.340,2.258,0.738,-64.575,39.734,-58.533
-0.564,1.798,-0.004,-54.138,13.550,-88.684
-0.528,1.158,-0.041,73.120,-10.437,-158.325
-0.217,-0.420,0.487,137.329,22.583,-162.659
-0.195,-1.054,0.555,76.172,63.171,-91.125
-0.680,-1.969,0.087,-4.578,-2.808,-75.134
-0.794,-2.402,0.106,29.053,-183.594,-182.007
-0.402,-3.139,0.871,116.577,-205.994,-241.333
-0.123,-3.192,1.393,165.527,-208.252,-271.973
0.557,-2.737,2.442,122.620,-188.110,-248.901
0.964,-2.400,2.338,38.391,45.593,-130.432
1.366,-1.732,0.725,16.174,164.246,-50.415
1.154,-1.401,0.105,-23.804,99.060,84.106
0.238,-0.856,0.460,-44.434,-26.672,119.629
-0.169,-0.655,0.899,-66.895,-121.643,135.925
-0.507,-0.348,1.021,-62.988,-74.097,131.104
-0.519,-0.187,0.847,-41.687,17.212,113.281
-0.475,0.083,0.632,-30.701,25.146,98.877
-0.434,0.119,0.661,-2.808,5.188,59.814
-0.302,0.010,0.900,11.353,-4.822,41.077
-0.241,-0.075,1.036,30.273,-1.770,21.301
-0.114,-0.220,1.225,31.677,12.817,20.630
-0.060,-0.250,1.225,13.977,49.866,31.555
0.010,-0.281,1.060,0.793,59.143,35.217
0.050,-0.312,0.969,-15.808,59.204,31.494
-0.028,2.214,0.766,-50.415,0.061,15.198
-0.152,2.434,0.737,-25.635,7.507,-0.732
-0.181,2.479,0.735,-1.099,0.244,-23.804
-0.138,2.365,0.766,29.541,-23.437,-68.970
-0.119,1.977,0.804,17.578,-35.522,-79.590
-0.173,1.739,0.733,-41.504,-42.969,-63.110
-0.344,1.038,0.342,-56.641,-35.828,-44.250
-0.369,0.480,0.202,17.700,24.536,-35.706
-0.145,-0.740,0.155,85.815,70.129,-52.246
-0.179,-1.118,0.133,100.403,4.517,-85.266
-0.666,-1.679,0.200,62.317,-114.929,-109.070
-0.769,-2.130,0.420,124.573,-242.676,-180.725
-0.608,-2.873,1.281,184.875,-248.657,-207.764
-0.524,-2.835,1.969,181.396,-281.250,-222.107
-0.100,-2.229,3.077,149.353,-214.478,-210.876
0.341,-1.952,2.729,113.586,151.978,-155.334
1.123,-1.586,0.590,103.943,289.612,-102.844
1.100,-1.332,-0.157,58.960,166.382,33.936
0.297,-0.725,0.297,28.259,-8.850,77.332
-0.146,-0.510,0.894,-2.747,-153.503,85.571
-0.488,-0.362,1.202,-1.038,-101.013,69.763
-0.405,-0.357,1.004,-2.136,14.465,47.424
-0.222,-0.265,0.706,-9.033,27.344,48.401
-0.220,-0.185,0.723,-12.573,10.010,54.993
-0.250,-0.112,0.919,-6.104,5.981,51.941
-0.239,-0.140,1.016,10.864,25.391,42.297
-0.149,-0.236,1.106,16.907,42.908,39.429
-0.075,-0.252,1.085,24.902,75.745,37.537
0.061,-0.263,0.977,24.780,80.322,36.316
0.106,-0.303,0.957,6.042,50.293,28.870
0.324,1.146,1.178,-31.189,-5.859,-11.047
0.304,1.302,1.193,-50.964,3.662,0.977
0.269,1.666,1.207,-66.284,-0.671,1.892
0.218,1.798,1.222,-72.876,-19.043,-11.108
0.042,1.888,1.208,-68.237,-23.132,-22.156
-0.047,1.905,1.118,-77.454,-15.808,-46.082
-0.175,1.876,0.783,-96.130,-13.123,-51.208
-0.289,1.700,0.565,-134.277,-7.385,-35.828
-0.537,0.913,-0.008,-116.760,10.620,-36.743
-0.536,0.409,-0.219,31.555,38.574,-92.957
-0.352,-0.888,-0.040,116.333,28.442,-134.094
-0.310,-1.519,0.228,144.775,-78.491,-163.452
-0.467,-2.390,0.779,98.328,-158.020,-156.311
-0.422,-2.669,1.003,105.164,-176.208,-179.810
0.056,-2.797,1.441,140.137,-143.616,-202.148
0.401,-2.609,1.827,120.972,-131.104,-206.116
1.109,-1.949,2.193,75.195,-92.834,-173.035
1.395,-1.673,1.868,19.592,79.529,-65.369
1.393,-1.280,0.813,8.850,131.042,1.709
1.031,-1.055,0.550,-19.226,48.401,118.652
0.161,-0.594,0.786,-34.363,-26.917,145.447
-0.122,-0.421,0.936,-44.495,-54.749,140.930
-0.300,-0.188,0.857,-36.987,-16.846,124.939
-0.285,-0.091,0.742,-16.602,26.428,86.548
-0.242,0.039,0.649,-7.690,16.418,65.002
-0.236,0.072,0.696,21.179,-15.198,20.447
-0.217,0.055,0.890,43.213,-18.799,0.610
-0.181,-0.006,1.004,85.754,0.488,-22.400
-0.050,-0.177,1.209,93.323,15.137,-21.057
0.007,-0.221,1.233,73.303,43.396,2.014
0.175,1.420,1.067,-20.386,6.104,3.601
0.139,1.592,1.094,-28.931,-0.366,-14.465
0.125,1.947,1.073,-33.386,-2.625,-24.597
0.156,2.148,1.042,-33.325,-5.981,-50.293
0.145,2.193,1.028,-42.480,-3.723,-67.871
-0.011,2.263,0.756,-64.514,4.761,-64.941
-0.177,2.213,0.432,-98.755,11.108,-60.364
-0.497,1.641,-0.200,-157.227,-39.795,-85.999
-0.601,1.029,-0.362,-154.785,-96.375,-113.586
-0.668,-0.602,-0.172,-10.437,-136.475,-150.879
-0.666,-1.485,0.175,203.186,-10.925,-124.573
-0.777,-2.847,1.044,223.328,-22.949,-106.506
-0.752,-3.159,1.738,183.777,-137.146,-115.295
-0.142,-2.949,2.928,104.675,-271.606,-186.340
0.435,-2.665,2.843,109.680,-147.705,-210.876
1.468,-2.135,1.437,89.172,147.705,-175.842
1.621,-1.860,0.801,44.556,158.325,-112.366
0.945,-1.233,0.856,-30.884,-26.428,41.260
0.416,-0.918,1.172,-40.833,-79.773,94.543
-0.260,-0.416,1.184,-39.734,-30.273,124.634
-0.375,-0.214,0.868,-47.363,6.287,117.859
-0.379,0.049,0.423,-45.166,16.724,89.172
-0.378,0.118,0.441,-30.029,-0.061,71.594
-0.378,0.166,0.715,3.052,-25.146,36.926
-0.345,0.164,0.857,17.517,-19.531,23.010
-0.283,0.161,0.947,38.147,18.372,4.639
-0.144,0.127,0.958,44.800,34.485,-0.916
-0.108,0.086,0.944,50.354,39.001,-7.385
-0.068,-0.014,0.962,48.828,34.729,-9.277
-0.031,-0.075,0.975,46.021,39.185,-10.559
0.246,1.614,1.141,-18.188,11.536,-3.174
0.182,1.802,1.249,-5.737,35.461,-18.799
0.178,2.031,1.249,-23.437,47.058,-33.569
0.194,2.090,1.109,-100.098,53.528,-57.068
0.052,2.104,0.645,-129.700,46.692,-68.115
-0.064,2.013,0.445,-127.502,20.081,-109.924
-0.237,1.490,0.083,-111.206,5.066,-132.996
-0.331,1.031,-0.053,-70.801,-32.959,-158.813
-0.520,-0.187,-0.073,-30.823,-38.818,-164.551
-0.620,-0.800,-0.002,78.247,-39.307,-172.668
-1.002,-1.841,0.255,98.267,-101.807,-186.401
-1.222,-2.424,0.607,97.168,-296.326,-225.647
-1.249,-3.355,1.539,133.606,-314.636,-226.501
-0.986,-3.412,2.058,219.971,-213.745,-194.336
-0.082,-2.677,2.893,215.210,-135.681,-190.552
0.606,-2.350,2.600,112.000,61.768,-169.495
1.604,-1.956,1.057,63.660,113.403,-102.356
1.464,-1.662,0.714,-8.301,13.245,78.430
0.317,-1.025,1.116,-47.241,-64.819,135.437
-0.130,-0.806,1.288,-106.506,-90.088,161.011
-0.376,-0.478,0.993,-116.577,-46.936,155.579
-0.366,-0.308,0.749,-96.924,26.062,135.925
-0.315,-0.037,0.555,-76.782,31.128,119.141
-0.290,0.038,0.579,-34.363,17.395,78.613
-0.221,0.060,0.714,-8.179,15.930,60.059
-0.182,0.029,0.807,49.744,35.339,34.973
-0.073,-0.017,0.966,66.101,48.584,28.320
-0.019,-0.032,1.000,65.430,55.054,25.757
0.039,-0.113,1.037,26.306,38.391,23.621
0.051,-0.178,1.063,5.188,26.672,20.935
0.736,1.049,0.839,-87.769,-34.912,-31.433
0.722,1.139,0.792,-128.113,-55.542,-20.935
0.528,1.382,0.766,-121.887,-52.490,-9.827
0.366,1.822,0.769,-91.003,-33.447,5.615
0.329,2.005,0.745,-97.473,-45.471,-14.282
0.161,2.215,0.676,-110.291,-67.078,-33.752
0.002,2.264,0.594,-116.394,-93.445,-74.158
-0.246,2.110,0.286,-108.521,-96.436,-95.642
-0.308,1.875,0.144,-96.069,-116.699,-126.160
-0.568,1.208,-0.067,-93.018,-135.681,-125.244
-0.840,0.777,-0.195,-62.012,-194.336,-115.540
-1.386,-0.426,-0.255,-11.169,-238.586,-128.418
-1.643,-1.216,-0.085,171.143,-303.467,-171.265
-2.217,-2.801,0.541,266.602,-294.495,-189.331
-2.367,-3.356,0.997,395.752,-236.999,-253.601
-1.871,-3.588,2.835,392.578,-241.089,-303.467
-0.948,-3.260,3.702,239.563,-168.518,-354.004
2.178,-2.856,2.554,170.898,9.277,-312.317
3.111,-2.899,1.348,152.466,305.054,-0.061
1.116,-1.494,0.638,133.423,295.288,205.749
-0.206,-0.738,0.960,-5.554,49.316,306.641
-0.824,-0.412,1.345,-94.604,-70.984,249.268
-0.654,-0.344,1.070,-183.044,-80.750,195.251
-0.490,0.066,0.552,-146.851,-17.456,185.608
-0.461,0.245,0.528,-26.123,74.951,142.151
-0.349,0.416,0.635,10.925,83.984,114.563
-0.295,0.453,0.696,26.733,71.533,87.708
-0.228,0.430,0.920,26.306,14.465,37.170
-0.206,0.360,1.085,24.536,-9.277,16.724
-0.180,0.251,1.244,30.029,-7.019,-4.578
0.031,1.688,1.099,36.133,0.732,-39.856
-0.049,1.886,1.095,-16.296,-2.686,-62.378
-0.209,2.233,0.978,-44.495,-14.343,-81.177
-0.422,2.293,0.589,-100.769,-39.917,-136.658
-0.495,2.150,0.357,-129.395,-63.599,-175.110
-0.551,1.872,0.229,-153.748,-133.240,-222.534
-0.593,0.903,0.247,-125.732,-133.972,-209.534
-0.632,0.307,0.276,19.104,-35.461,-148.132
-0.687,-0.799,0.529,89.966,-1.526,-136.536
-0.795,-1.173,0.701,80.872,-93.079,-175.232
-0.888,-2.056,0.967,44.250,-173.035,-199.402
-0.765,-2.476,1.194,137.146,-123.962,-184.814
-0.354,-2.607,1.391,212.585,-19.714,-176.575
-0.078,-2.453,1.307,217.468,46.570,-188.538
0.647,-2.182,1.124,167.908,5.554,-180.603
0.896,-2.003,1.181,80.688,-72.449,-100.403
0.838,-1.484,1.524,52.002,-79.346,-49.622
0.642,-1.228,1.525,12.146,-24.658,32.166
0.248,-0.797,1.093,2.625,6.836,58.105
0.106,-0.636,0.903,1.770,13.733,78.430
-0.096,-0.384,0.839,5.371,2.808,79.468
-0.156,-0.290,0.932,11.902,-7.385,70.374
-0.185,-0.207,1.154,12.146,-1.465,62.500
-0.155,-0.213,1.205,14.465,31.921,51.392
-0.079,-0.232,1.181,20.874,53.101,50.049
-0.050,-0.248,1.136,36.255,78.247,49.683
0.057,-0.307,1.001,39.368,78.491,48.584
0.128,-0.326,0.938,38.696,60.364,46.021
0.242,-0.363,0.890,39.063,47.791,44.739
0.272,-0.404,0.898,46.936,30.518,43.518
0.066,1.286,1.268,-67.810,6.531,18.372
0.101,1.438,1.111,-129.639,-26.794,-1.648
0.130,1.646,0.799,-147.949,-47.424,-8.240
0.164,1.721,0.760,-97.961,-39.307,-13.062
0.218,1.930,0.867,-61.157,-20.203,-6.470
0.129,2.111,0.860,-45.105,10.925,23.621
-0.285,2.384,0.628,-54.138,15.564,28.259
-0.448,2.363,0.506,-45.288,4.639,-17.395
-0.568,2.009,0.215,-24.597,-10.681,-55.420
-0.575,1.649,0.129,29.297,-51.514,-130.493
-0.436,0.505,0.308,51.270,-50.903,-145.508
-0.348,-0.092,0.417,77.515,29.724,-99.060
-0.397,-0.920,0.292,105.408,88.867,-68.970
-0.468,-1.296,0.153,161.194,101.624,-105.225
-0.260,-2.430,0.420,167.725,31.189,-156.860
-0.107,-2.805,0.766,148.560,-70.496,-199.768
0.178,-2.854,1.204,142.578,-57.251,-198.669
0.391,-2.686,1.335,128.906,-13.672,-197.815
0.875,-2.177,1.470,107.300,-4.272,-180.298
1.034,-1.896,1.377,51.514,16.174,-96.619
1.018,-1.433,1.133,24.231,7.690,-48.096
0.836,-1.259,1.089,-25.146,-46.692,33.203
0.340,-0.971,1.112,-41.321,-64.087,63.049
0.104,-0.816,1.153,-54.077,-51.331,97.534
-0.225,-0.502,1.132,-54.260,-29.175,98.999
-0.288,-0.395,1.029,-42.786,12.207,74.219
-0.273,-0.317,0.851,-31.616,19.104,54.260
-0.216,-0.334,0.830,-1.099,18.921,18.433
-0.075,-0.408,0.876,15.686,21.301,8.423
-0.010,-0.450,0.904,38.269,29.175,0.183
0.274,1.145,1.172,13.000,-0.854,-31.738
0.241,1.241,1.152,7.324,2.686,-32.898
0.167,1.448,1.072,3.296,2.441,-38.879
0.108,1.448,1.020,-3.845,-1.526,-62.012
-0.080,1.249,0.761,-12.939,-8.972,-71.960
-0.192,1.100,0.577,-31.860,-40.161,-88.806
-0.417,0.546,0.250,-28.320,-52.917,-102.966
-0.528,0.083,0.125,42.175,-29.846,-147.217
-0.762,-1.132,-0.101,101.379,-3.357,-175.354
-0.870,-1.774,-0.104,171.204,-30.701,-236.389
-1.046,-2.755,0.292,162.292,-93.933,-260.620
-1.013,-3.036,0.640,130.005,-206.909,-298.523
-0.386,-3.079,1.727,130.615,-209.412,-307.129
0.153,-2.841,2.225,103.882,-42.480,-259.766
1.283,-2.286,1.676,55.237,93.262,-202.576
1.543,-2.071,0.894,-17.639,219.727,-18.860
1.006,-1.514,0.224,-22.461,169.067,83.740
0.422,-1.210,0.505,-36.743,-9.033,197.571
-0.360,-0.786,1.149,-65.430,-60.913,198.120
-0.452,-0.651,1.143,-118.469,-38.391,163.879
-0.411,-0.387,0.799,-116.821,1.160,149.475
-0.377,-0.253,0.687,-72.815,44.495,121.033
-0.278,-0.051,0.674,-47.424,43.701,101.746
-0.221,-0.009,0.733,2.197,33.447,59.387
-0.132,-0.041,0.903,26.489,32.898,41.077
-0.076,-0.104,0.985,57.922,38.208,15.320
0.085,-0.241,1.106,60.364,41.077,11.536
0.158,-0.293,1.127,36.499,40.100,23.926
0.223,-0.332,1.091,13.489,30.334,32.593
0.223,-0.331,1.071,-8.972,17.639,38.269
0.070,1.577,1.013,-12.451,21.240,-20.508
0.076,1.713,1.006,-3.845,30.273,-41.077
0.198,1.815,0.927,-10.498,22.949,-57.983
0.244,1.708,0.879,-24.109,-1.038,-81.543
0.208,1.613,0.854,-24.597,-4.456,-84.351
0.096,1.398,0.686,-24.719,3.540,-84.595
0.027,1.256,0.598,-25.513,0.854,-89.600
-0.119,0.734,0.503,-23.254,-11.292,-112.061
-0.210,0.330,0.460,-27.161,-12.207,-118.347
-0.317,-0.117,0.388,-25.452,-6.836,-110.107
-0.510,-1.045,0.265,3.784,-11.230,-109.802
-0.629,-1.932,0.516,97.168,-56.030,-144.287
-0.657,-2.200,0.733,122.375,-104.431,-169.128
-0.580,-2.358,1.296,113.403,-231.812,-201.965
-0.448,-2.294,1.654,105.591,-269.348,-200.195
-0.263,-2.149,2.030,94.421,-231.995,-163.269
0.156,-1.697,2.391,78.857,-160.461,-133.301
0.343,-1.489,2.191,30.090,32.532,-62.622
0.584,-1.201,1.250,12.878,111.633,-25.208
0.560,-1.089,0.867,-11.536,142.090,55.847
0.251,-0.835,0.649,-33.203,95.642,89.478
0.060,-0.693,0.716,-73.853,1.892,123.535
-0.183,-0.419,0.801,-76.782,-2.869,126.282
-0.215,-0.309,0.774,-51.453,39.246,114.136
-0.170,-0.177,0.703,-31.555,57.678,102.417
-0.125,-0.156,0.704,16.357,73.120,73.853
-0.060,-0.193,0.781,42.725,75.500,59.082
-0.050,-0.229,0.839,87.830,74.219,31.006
0.012,-0.277,0.956,98.572,68.665,18.005
0.081,-0.323,1.014,84.717,46.082,8.667
0.314,1.499,0.943,7.935,-14.954,-20.508
0.266,1.570,0.971,1.953,-12.695,-25.574
0.182,1.725,0.980,0.183,-7.385,-32.166
0.129,1.755,0.948,-7.996,5.920,-51.208
-0.034,1.608,0.701,-20.996,7.629,-63.660
-0.119,1.439,0.490,-38.513,-18.433,-100.586
-0.271,0.811,0.162,-21.240,-39.917,-121.643
-0.314,0.307,0.179,94.910,-18.799,-160.339
-0.248,-0.809,0.330,158.691,29.602,-168.579
-0.254,-1.251,0.322,159.851,24.292,-162.903
-0.426,-2.007,0.369,114.075,-63.660,-161.560
-0.485,-2.278,0.634,129.578,-195.251,-178.772
-0.399,-2.417,1.382,180.542,-174.561,-184.998
-0.277,-2.288,1.601,192.993,-85.144,-176.941
0.097,-1.975,1.663,156.006,-55.969,-165.771
0.299,-1.829,1.564,73.486,4.944,-98.511
0.414,-1.447,1.151,38.391,28.381,-49.561
0.372,-1.262,0.985,-7.080,19.653,20.020
0.217,-1.006,0.910,-21.423,3.784,41.809
0.121,-0.906,0.919,-47.119,-10.071,74.402
-0.032,-0.708,0.861,-60.181,-9.460,85.754
-0.083,-0.600,0.800,-76.538,-5.005,98.694
-0.161,-0.399,0.751,-75.012,-1.709,98.755
-0.181,-0.339,0.771,-54.443,9.521,84.778
-0.164,-0.323,0.821,-38.452,17.456,73.975
-0.131,-0.338,0.838,-4.883,30.151,55.542
-0.038,-0.356,0.871,5.371,29.968,49.744
-0.004,-0.384,0.884,5.676,13.977,43.213
0.015,-0.520,0.904,2.258,4.822,40.771
0.018,-0.590,0.919,2.747,3.235,42.114
0.496,1.219,0.901,-29.663,-27.466,-44.250
0.549,1.232,0.919,-16.541,-26.123,-49.622
0.510,1.174,0.944,-8.606,-19.226,-45.471
0.383,1.125,0.853,-11.047,-6.470,-36.743
0.331,1.126,0.812,-25.452,-19.653,-39.734
0.148,1.079,0.715,-26.733,-28.503,-45.349
0.020,0.974,0.634,-19.653,-39.490,-66.833
-0.198,0.608,0.450,-16.357,-45.654,-78.430
-0.310,0.345,0.377,-2.991,-62.134,-91.003
-0.625,-0.307,0.241,21.729,-64.453,-92.407
-0.771,-0.678,0.199,116.272,-48.889,-117.737
-0.900,-1.426,0.245,161.011,-48.035,-142.273
-0.939,-1.735,0.376,180.969,-121.216,-193.054
-0.855,-2.283,1.016,164.978,-181.580,-218.384
-0.603,-2.454,1.526,153.809,-210.632,-229.309
0.141,-2.341,2.434,158.508,-144.958,-201.538
0.494,-2.140,2.489,117.065,72.388,-108.643
0.869,-1.778,1.453,63.110,156.372,-48.401
0.781,-1.578,0.877,-28.198,142.822,85.693
0.251,-1.140,0.616,-54.016,77.637,133.789
-0.005,-0.968,0.740,-73.853,21.667,159.912
-0.256,-0.673,0.817,-98.755,-1.892,168.762
-0.282,-0.533,0.761,-91.125,34.180,156.250
-0.238,-0.295,0.653,-80.994,43.701,145.325
-0.204,-0.224,0.640,-70.923,43.335,131.348
-0.168,-0.167,0.698,-44.250,31.372,100.342
-0.163,-0.170,0.763,-23.315,28.870,85.999
-0.144,-0.168,0.833,23.254,35.217,59.570
-0.055,-0.162,0.913,39.307,38.513,47.974
-0.005,-0.185,0.932,48.767,29.053,33.508
0.391,1.299,0.982,21.851,-5.493,-59.753
0.365,1.291,0.991,17.517,-15.259,-63.721
0.295,1.324,0.971,8.606,-19.531,-62.561
0.283,1.381,0.940,-4.150,-23.071,-63.782
0.184,1.397,0.787,-10.864,-23.010,-67.383
0.061,1.327,0.674,-33.997,-32.410,-73.303
-0.271,1.002,0.408,-49.011,-44.189,-76.538
-0.438,0.742,0.258,-58.960,-89.905,-98.145
-0.750,0.015,0.037,-34.729,-124.939,-114.502
-0.889,-0.480,0.118,97.351,-161.316,-143.066
-1.026,-1.545,0.553,176.453,-139.648,-150.940
-1.037,-1.970,0.739,278.320,-65.063,-166.687
-0.891,-2.510,1.149,290.588,-52.917,-185.425
-0.627,-2.595,1.400,263.550,-57.007,-234.863
0.247,-2.426,1.741,247.864,-30.823,-234.192
0.627,-2.264,1.577,186.157,73.792,-141.418
0.889,-1.891,0.794,134.766,93.384,-74.829
0.775,-1.691,0.675,44.434,15.686,28.259
0.283,-1.371,0.970,14.404,-23.010,61.401
0.052,-1.212,1.038,-17.151,-3.540,106.812
-0.170,-0.879,0.838,-22.461,30.334,119.690
-0.194,-0.733,0.716,-22.217,69.336,125.977
-0.198,-0.539,0.600,-18.738,71.838,119.873
-0.198,-0.505,0.577,-4.883,60.181,95.886
-0.196,-0.470,0.612,3.113,45.959,82.336
-0.190,-0.461,0.675,11.475,11.963,56.519
-0.095,-0.529,0.851,13.123,3.662,48.462
-0.036,-0.574,0.937,12.390,4.517,47.302
0.036,-0.596,1.010,-5.920,20.447,57.556
0.051,-0.576,0.983,-26.184,23.682,61.340
0.151,1.296,1.095,-17.639,6.897,-17.700
0.180,1.334,0.988,-33.875,-3.052,-34.668
0.251,1.394,0.824,-39.673,-14.465,-44.434
0.287,1.440,0.785,-35.156,-33.264,-57.556
0.279,1.482,0.705,-28.870,-36.743,-58.411
0.197,1.417,0.622,-28.503,-38.269,-56.824
-0.046,1.147,0.373,-30.212,-46.448,-64.392
-0.171,0.961,0.281,-16.846,-86.792,-98.999
-0.368,0.306,0.256,2.136,-104.248,-117.249
-0.437,-0.137,0.314,84.473,-77.698,-133.240
-0.549,-0.999,0.403,132.263,-43.518,-131.104
-0.600,-1.377,0.424,156.982,-63.782,-128.601
-0.763,-1.928,0.564,136.047,-138.550,-136.047
-0.815,-2.139,0.794,122.192,-273.376,-174.011
-0.675,-2.324,1.456,130.371,-279.602,-190.308
-0.492,-2.238,1.849,127.258,-220.459,-192.322
-0.112,-1.867,2.593,109.741,-154.846,-172.241
0.110,-1.698,2.513,63.904,110.413,-95.764
0.501,-1.419,1.244,57.434,267.212,-40.649
0.568,-1.288,0.548,63.599,376.404,69.336
0.353,-1.048,0.134,49.866,291.809,108.276
0.129,-0.953,0.360,-19.409,54.993,138.489
-0.222,-0.771,0.792,-53.406,-7.751,138.794
-0.298,-0.670,0.823,-75.745,-10.681,128.662
-0.288,-0.478,0.736,-63.110,8.789,117.737
-0.253,-0.413,0.724,-19.409,33.386,89.111
-0.180,-0.365,0.784,4.517,40.100,76.111
-0.127,-0.367,0.853,50.964,58.289,59.082
0.020,-0.394,1.014,63.416,70.496,58.472
0.080,-0.388,1.037,50.903,85.205,70.435
-0.572,-1.803,0.915,122.437,-162.170,-173.767
-0.512,-2.013,1.103,166.077,-130.188,-181.824
-0.307,-2.075,1.501,162.659,-104.980,-179.932
-0.104,-1.983,1.618,131.714,-13.245,-185.974
0.489,-1.759,1.374,103.760,55.298,-176.025
0.780,-1.637,1.007,46.143,154.114,-107.544
1.016,-1.382,0.498,29.236,142.944,-55.603
0.900,-1.269,0.563,5.676,30.090,45.288
0.401,-1.055,0.951,-8.545,-15.442,84.351
0.169,-0.933,1.045,-42.175,-28.381,128.784
-0.089,-0.659,0.955,-60.974,-15.625,134.277
-0.131,-0.562,0.861,-86.731,-3.540,125.671
-0.103,-0.461,0.812,-83.313,-3.784,120.056
-0.083,-0.427,0.872,-54.626,2.747,116.455
-0.073,-0.388,1.013,-42.542,10.071,114.807
-0.060,-0.384,1.036,-39.124,14.038,102.112
-0.004,-0.414,1.021,-40.955,9.460,92.834
0.020,-0.431,1.027,-34.424,5.920,78.613
0.039,-0.436,1.029,-27.405,11.230,73.914
0.050,-0.412,1.008,-9.766,27.771,67.078
0.062,-0.333,0.940,-1.038,36.621,63.049
0.067,-0.298,0.897,15.930,51.819,51.758
0.082,-0.254,0.836,26.062,56.885,46.570
0.106,-0.239,0.832,34.912,59.753,43.762
0.184,-0.166,0.830,29.114,54.932,50.537
0.197,-0.101,0.796,11.414,45.898,57.861
0.190,-0.039,0.746,-19.714,21.851,62.622
0.163,0.051,0.705,-20.752,10.986,56.335
0.162,0.076,0.741,-2.014,-2.136,34.668
0.206,0.094,0.819,8.728,-2.197,26.733