aX,aY,aZ,gX,gY,gZ
1.796,-0.487,1.116,82.092,90.759,-124.146
2.215,-0.823,1.058,92.468,107.605,-66.589
2.745,-1.342,0.877,66.528,83.618,-15.320
2.404,-1.402,0.695,-16.357,-11.353,106.873
1.985,-1.277,0.625,-42.786,-50.110,162.231
1.237,-0.985,0.546,-42.542,-77.759,231.873
0.887,-0.864,0.567,-34.790,-82.886,250.000
0.040,-0.643,0.773,-36.621,-90.088,271.362
-0.385,-0.509,0.911,-31.982,-80.017,273.865
-0.717,-0.359,0.982,-0.488,-38.574,260.315
-1.170,-0.214,0.973,19.165,-28.870,237.366
-1.278,-0.271,0.990,50.964,-14.954,180.542
-1.320,-0.475,1.002,74.768,13.428,163.574
-1.272,-0.514,0.990,131.348,81.299,141.907
-1.101,-0.452,0.915,138.916,94.299,125.610
-0.922,-0.407,0.813,104.675,66.895,76.538
-0.567,-0.423,0.618,86.853,42.725,57.617
-0.499,-0.472,0.625,78.247,6.958,54.504
-0.584,-0.495,0.787,76.416,-5.554,60.486
-0.648,-0.454,0.876,68.604,-18.372,61.462
-0.680,-0.410,0.956,42.603,-42.297,46.997
-0.679,-0.356,1.098,30.945,-48.645,39.734
-0.675,-0.342,1.155,12.268,-46.143,32.349
-0.649,-0.315,1.188,3.479,-41.809,28.992
-0.616,-0.296,1.169,-5.493,-30.884,20.874
-0.515,-0.245,1.133,-2.441,-22.461,19.531
-0.466,-0.213,1.118,10.559,-1.465,20.386
-0.409,-0.180,1.053,15.076,9.583,18.555
-0.363,-0.181,1.013,14.160,16.052,16.541
-0.309,-0.190,0.972,3.967,14.771,6.775
1.477,-0.587,1.161,51.636,13.367,-47.668
1.763,-0.882,1.126,24.841,25.940,-59.509
2.306,-1.450,0.879,-6.714,19.958,-62.073
2.514,-1.647,0.762,-74.341,-23.254,-21.912
2.401,-1.755,0.574,-98.389,-38.940,34.485
2.083,-1.660,0.415,-92.224,-16.174,186.157
1.288,-1.348,0.084,-58.594,-3.235,255.005
0.872,-1.215,0.096,22.034,-31.860,339.966
0.034,-0.927,0.474,51.331,-53.284,354.187
-0.351,-0.742,0.637,68.726,-64.148,353.638
-0.705,-0.549,0.729,77.209,-71.106,313.171
-1.184,-0.329,0.800,77.271,-78.857,274.597
-1.263,-0.333,0.834,89.905,-96.436,194.824
-1.358,-0.418,0.924,101.257,-95.703,167.725
-1.444,-0.472,0.958,122.742,-72.876,129.883
-1.531,-0.655,1.013,128.723,-57.617,110.352
-1.448,-0.783,1.045,114.014,-32.410,76.538
-1.165,-0.937,0.988,92.163,-19.897,71.045
-1.030,-0.948,0.880,65.002,-9.033,71.167
-0.822,-0.848,0.749,21.240,-5.920,73.059
-0.772,-0.748,0.799,12.573,-11.780,75.134
-0.766,-0.623,0.902,6.104,-20.325,83.801
-0.808,-0.371,1.092,1.038,-21.423,85.693
-0.821,-0.267,1.165,-11.963,-17.883,75.745
-0.748,-0.152,1.265,-16.357,-13.306,64.758
-0.690,-0.132,1.275,-22.583,-1.648,41.138
-0.499,-0.166,1.178,-24.780,3.662,31.067
-0.411,-0.205,1.116,-25.696,6.836,19.043
-0.299,-0.289,1.014,-24.292,7.568,16.968
-0.262,-0.322,0.984,-17.578,11.963,15.991
1.517,-0.525,0.749,7.568,13.672,-9.094
1.723,-0.670,0.652,-28.198,-17.639,-28.931
2.063,-1.019,0.435,-35.706,-28.381,-26.611
2.263,-1.365,0.130,-41.992,-25.391,20.447
2.248,-1.488,-0.034,-23.010,-35.034,137.573
1.743,-1.478,-0.136,9.460,-48.767,215.881
1.303,-1.354,-0.076,112.427,-51.514,350.708
0.324,-0.980,0.178,155.273,-57.068,377.014
-0.176,-0.809,0.431,161.072,-115.601,324.219
-0.996,-0.681,1.060,137.207,-145.508,267.883
-1.272,-0.761,1.265,108.398,-150.024,179.749
-1.469,-1.050,1.396,104.004,-130.859,158.813
-1.428,-1.129,1.303,79.956,-87.036,137.695
-1.316,-1.177,0.923,58.838,-81.787,126.526
-1.293,-1.164,0.803,36.560,-85.205,116.638
-1.296,-0.970,0.738,38.086,-79.773,122.070
-1.304,-0.808,0.779,40.222,-73.975,127.625
-1.306,-0.466,0.891,25.757,-68.054,120.178
-1.241,-0.318,0.908,4.456,-70.190,100.525
-1.019,-0.085,0.952,-43.152,-83.618,47.180
-0.930,0.009,1.001,-47.302,-79.956,32.104
-0.867,0.086,1.055,-14.526,-46.570,28.442
-0.745,0.162,1.136,-0.122,-31.372,24.780
-0.670,0.125,1.173,-1.221,-18.127,0.916
-0.551,-0.047,1.206,-11.536,-15.259,-10.620
-0.506,-0.136,1.181,-25.146,-1.465,-21.240
-0.383,-0.271,1.062,-23.315,8.911,-21.790
-0.315,-0.319,1.007,-7.812,24.780,-18.860
-0.173,-0.410,0.925,1.221,31.189,-16.846
-0.100,-0.443,0.887,11.108,39.063,-11.536
1.543,-0.388,0.890,42.175,25.574,-3.235
2.179,-1.047,0.426,-13.245,-17.822,-50.415
2.415,-1.440,0.242,-41.870,-52.185,-58.716
2.463,-1.904,0.156,-44.312,-92.529,14.221
2.237,-1.902,0.183,-15.198,-81.726,101.501
1.171,-1.485,0.240,44.800,-49.316,291.992
0.484,-1.218,0.368,64.819,-52.002,347.717
-0.134,-0.984,0.557,74.585,-81.482,340.332
-0.955,-0.744,0.931,63.477,-98.816,298.035
-1.196,-0.763,1.044,45.959,-106.750,221.497
-1.442,-0.912,1.149,57.617,-91.614,204.529
-1.496,-0.957,1.161,108.765,-45.105,202.148
-1.523,-0.918,1.141,126.099,-24.170,200.623
-1.493,-0.830,1.098,105.713,-3.052,171.570
-1.339,-0.583,0.854,73.547,-9.460,145.203
-1.239,-0.477,0.771,24.719,-43.762,96.069
-1.147,-0.304,0.881,18.982,-57.129,84.717
-1.175,-0.210,0.997,27.832,-58.960,78.308
-1.115,-0.033,1.239,32.104,-52.856,69.153
-1.013,0.012,1.328,17.456,-36.560,34.668
-0.803,-0.041,1.300,-1.221,-26.611,16.907
-0.700,-0.118,1.187,-24.353,-1.709,-4.700
-0.458,-0.309,0.969,-20.996,8.423,-5.493
-0.331,-0.403,0.901,-1.709,24.597,6.836
-0.141,-0.495,0.817,4.700,29.480,14.099
-0.099,-0.474,0.806,4.333,32.043,20.935
-0.042,-0.375,0.805,-1.953,29.846,17.700
-0.005,-0.350,0.795,-13.855,23.560,7.446
0.076,-0.355,0.747,-12.146,22.766,6.653
0.111,-0.366,0.730,7.385,23.621,15.808
1.436,-0.480,0.963,49.011,12.817,-29.602
1.688,-0.636,0.906,25.635,11.353,-19.653
2.161,-1.026,0.683,8.545,2.441,-4.883
2.281,-1.297,0.474,-4.089,-15.259,62.927
2.161,-1.326,0.383,-3.052,-22.705,110.229
1.667,-1.250,0.204,-4.700,-45.349,191.833
1.362,-1.206,0.124,-7.019,-64.453,217.773
0.677,-1.078,0.148,8.728,-105.469,249.817
0.277,-0.974,0.267,32.593,-116.333,262.695
-0.548,-0.797,0.671,97.961,-120.361,270.813
-0.884,-0.734,0.945,118.958,-121.033,256.042
-1.289,-0.573,1.410,106.018,-117.554,196.167
-1.380,-0.535,1.477,83.923,-104.797,164.917
-1.409,-0.651,1.308,52.551,-59.814,118.774
-1.344,-0.764,1.162,47.119,-37.476,101.074
-1.254,-0.853,1.039,42.603,-9.827,78.064
-1.076,-0.850,0.869,38.086,-2.014,73.792
-0.990,-0.778,0.802,19.409,-2.380,68.359
-0.828,-0.595,0.726,7.263,-10.803,64.514
-0.783,-0.482,0.734,-12.390,-33.264,59.326
-0.790,-0.234,0.841,-16.296,-41.626,58.228
-0.793,-0.126,0.919,-11.841,-46.753,52.429
-0.700,0.014,1.084,-6.348,-43.274,46.326
-0.592,0.032,1.144,1.709,-30.151,28.564
-0.399,-0.016,1.153,-1.160,-22.461,20.935
-0.320,-0.069,1.084,-11.719,-5.310,10.864
-0.192,-0.210,0.912,-13.794,0.854,7.629
-0.119,-0.277,0.846,-7.935,7.935,4.578
0.029,-0.367,0.755,-2.930,9.399,5.676
0.084,-0.393,0.730,2.319,6.531,9.949
1.554,-0.520,0.683,77.698,68.359,88.440
1.624,-0.644,0.583,58.350,54.443,94.849
1.701,-1.025,0.394,30.640,23.499,88.257
1.708,-1.241,0.348,-17.273,-43.152,97.290
1.549,-1.494,0.361,-18.921,-60.181,125.977
1.321,-1.468,0.376,10.010,-63.843,207.092
0.609,-1.191,0.504,27.710,-66.284,236.999
0.168,-0.990,0.706,80.444,-68.481,264.832
-0.586,-0.558,1.196,109.131,-59.814,263.123
-0.807,-0.377,1.323,115.173,-50.232,217.102
-1.077,-0.398,1.261,94.543,-53.955,183.228
-1.210,-0.648,1.210,82.092,-43.518,144.287
-1.287,-1.041,1.177,95.337,-24.414,138.489
-1.214,-1.046,1.154,85.999,-0.732,127.014
-1.130,-0.831,1.022,61.829,0.916,120.117
-1.121,-0.693,0.963,35.828,0.305,107.361
-1.036,-0.378,0.996,37.842,-1.892,99.548
-0.955,-0.222,1.059,33.142,-11.353,75.928
-0.725,-0.015,1.129,18.738,-18.127,58.960
-0.604,0.025,1.124,-17.517,-31.616,25.513
-0.426,0.011,1.073,-26.855,-35.034,13.489
-0.366,-0.039,1.061,-27.710,-35.767,5.188
-0.249,-0.179,1.035,-16.724,-28.015,-4.883
-0.172,-0.236,1.013,-13.794,-23.071,-9.216
0.020,-0.311,0.932,-16.479,-12.329,-14.648
0.099,-0.350,0.892,-17.273,-8.240,-14.709
0.210,-0.413,0.830,-13.062,0.244,-9.094
0.241,-0.421,0.806,-9.888,3.723,-4.211
0.285,-0.403,0.780,-2.625,5.615,4.150
0.301,-0.388,0.777,2.686,5.676,7.202
1.477,-0.545,0.775,25.269,34.851,-18.433
1.676,-0.683,0.727,7.019,33.386,-10.742
1.949,-0.998,0.531,2.502,40.649,2.136
2.020,-1.090,0.404,-1.587,43.274,41.199
2.000,-1.210,0.258,-3.418,27.771,66.223
1.886,-1.257,0.230,-8.118,-23.071,136.902
1.348,-1.179,0.250,-1.160,-48.706,180.176
0.943,-1.054,0.362,49.988,-73.425,252.380
0.132,-0.801,0.773,82.520,-75.439,264.648
-0.184,-0.729,0.969,98.450,-92.590,229.675
-0.622,-0.664,1.254,79.651,-106.689,196.533
-0.781,-0.656,1.333,48.340,-103.333,148.254
-0.968,-0.654,1.332,42.847,-85.876,135.986
-1.014,-0.613,1.284,34.302,-48.401,117.737
-1.036,-0.526,1.106,29.602,-34.607,107.178
-1.021,-0.522,1.004,32.532,-15.259,85.388
-0.931,-0.524,0.853,41.016,-5.615,79.102
-0.857,-0.499,0.812,48.889,1.648,72.571
-0.718,-0.445,0.801,40.527,-5.432,66.711
-0.664,-0.437,0.826,10.559,-32.349,54.321
-0.651,-0.385,0.915,-1.160,-43.213,52.307
-0.653,-0.313,0.969,-7.996,-47.363,51.758
-0.604,-0.135,1.044,-10.071,-44.922,48.584
-0.554,-0.082,1.062,-23.987,-41.992,30.273
-0.448,-0.084,1.079,-31.677,-40.649,18.372
-0.397,-0.107,1.069,-34.912,-25.879,6.470
-0.254,-0.151,0.989,-29.663,-14.587,6.714
-0.179,-0.171,0.932,-17.700,2.136,7.568
-0.046,-0.226,0.851,-17.273,3.601,3.906
0.011,-0.260,0.838,-22.522,-0.183,-2.075
1.850,-0.537,0.672,17.578,14.954,-63.232
2.027,-0.699,0.606,10.315,20.447,-46.753
2.244,-1.172,0.376,20.996,29.602,-26.672
2.297,-1.480,0.250,41.382,11.963,55.908
2.001,-1.865,0.173,45.105,-20.203,119.873
1.640,-1.840,0.182,45.776,-72.693,241.699
0.734,-1.463,0.207,46.997,-90.027,279.358
0.217,-1.196,0.329,64.392,-121.033,300.293
-0.690,-0.722,0.743,74.646,-127.869,285.400
-1.011,-0.555,0.955,75.012,-132.629,215.637
-1.409,-0.308,1.319,71.045,-127.075,176.392
-1.485,-0.233,1.439,70.862,-86.975,112.305
-1.371,-0.266,1.399,66.528,-61.584,86.182
-1.292,-0.371,1.281,42.969,-31.189,54.504
-1.166,-0.540,0.984,39.551,-17.639,47.852
-1.105,-0.578,0.890,44.678,-8.911,44.495
-0.883,-0.639,0.868,57.983,-7.263,41.687
-0.765,-0.639,0.906,55.481,-11.292,44.861
-0.654,-0.451,0.993,29.236,-19.592,64.453
-0.688,-0.287,1.021,11.292,-23.132,72.937
-0.734,-0.124,1.051,-16.174,-32.227,61.462
-0.687,0.051,1.118,-25.269,-36.682,43.945
-0.450,0.046,1.108,-37.354,-34.668,11.963
-0.348,0.022,1.089,-36.194,-27.832,5.127
-0.286,-0.008,1.067,-20.691,-5.005,4.578
-0.182,-0.104,1.013,-15.015,6.104,2.441
-0.110,-0.171,0.975,-17.578,16.479,-8.667
0.035,-0.291,0.885,-19.165,15.808,-13.611
0.074,-0.347,0.871,-6.958,15.564,-13.062
0.116,-0.429,0.886,3.357,19.043,-8.362
2.008,-0.988,0.270,18.921,22.766,-120.728
2.172,-1.177,0.274,48.706,23.865,-62.988
2.233,-1.323,0.342,52.429,33.752,-8.484
2.093,-1.253,0.278,42.053,44.434,112.061
1.590,-1.026,0.021,40.283,31.006,167.419
1.229,-0.909,-0.033,54.749,-35.645,242.065
0.448,-0.688,0.121,63.232,-70.435,248.047
0.112,-0.591,0.305,65.735,-125.183,219.727
-0.469,-0.503,0.753,63.293,-140.198,200.806
-0.703,-0.517,0.920,44.983,-142.822,159.485
-1.006,-0.671,1.112,26.428,-141.296,135.376
-1.069,-0.715,1.162,-5.737,-130.615,95.276
-1.056,-0.656,1.158,-7.629,-115.662,86.792
-1.044,-0.598,1.121,14.526,-76.843,90.515
-1.036,-0.556,1.049,26.611,-61.462,92.834
-1.018,-0.562,1.056,43.640,-37.781,91.064
-0.954,-0.502,1.159,50.171,-24.048,89.722
-0.892,-0.438,1.213,34.363,-10.071,75.806
-0.720,-0.285,1.215,6.470,-17.029,59.570
-0.637,-0.222,1.180,-48.950,-37.476,28.870
-0.519,-0.062,1.098,-58.594,-36.804,23.376
-0.501,0.025,1.074,-44.006,-24.109,23.865
-0.460,0.119,1.079,-30.396,-16.541,22.522
-0.399,0.108,1.076,-19.043,-7.874,17.578
-0.304,0.055,1.050,-9.766,6.836,4.822
-0.144,-0.096,0.987,-12.573,8.789,2.991
-0.084,-0.157,0.936,-18.616,15.259,3.845
0.002,-0.228,0.833,-17.395,16.296,3.479
0.036,-0.252,0.808,-6.653,15.503,2.136
0.104,-0.271,0.803,0.732,15.747,2.319
1.468,-0.639,0.754,1.526,-2.502,9.888
1.681,-0.722,0.710,-2.991,-1.465,26.184
1.986,-1.058,0.544,-5.249,-0.793,41.077
1.992,-1.251,0.430,-13.245,-2.625,101.135
1.698,-1.381,0.271,-5.981,-4.883,145.935
1.413,-1.314,0.257,21.118,-27.161,224.121
0.689,-1.097,0.434,28.137,-52.368,242.126
0.273,-0.976,0.618,33.997,-100.281,245.300
-0.475,-0.690,1.026,44.434,-104.187,238.708
-0.723,-0.579,1.199,75.500,-77.576,215.271
-0.915,-0.544,1.377,82.092,-60.669,198.303
-0.908,-0.560,1.345,52.246,-41.565,162.231
-0.917,-0.474,1.169,28.931,-37.537,149.109
-0.955,-0.390,1.053,20.020,-19.226,136.414
-0.952,-0.339,0.847,31.738,-13.245,131.653
-0.926,-0.358,0.826,54.504,-19.714,120.605
-0.865,-0.327,0.925,55.481,-25.024,114.685
-0.880,-0.227,1.006,30.823,-29.724,100.891
-0.863,0.017,1.064,14.526,-27.100,89.416
-0.770,0.087,1.035,-13.367,-29.907,59.692
-0.571,0.100,0.961,-18.982,-34.241,47.302
-0.492,0.089,0.951,-10.864,-33.875,30.334
-0.394,0.077,0.991,-4.822,-29.236,24.719
-0.351,0.050,1.017,-2.747,-19.897,11.230
-0.245,-0.062,1.056,-6.897,-17.700,2.625
-0.166,-0.123,1.047,-15.930,-10.193,-10.010
-0.025,-0.203,0.996,-16.235,-4.883,-10.620
0.027,-0.215,0.968,-9.277,4.211,-7.812
0.120,-0.236,0.926,-5.859,5.188,-8.057
0.162,-0.252,0.918,-1.770,3.296,-10.742
1.571,-0.595,0.680,-11.719,16.479,-5.981
1.825,-0.910,0.535,-10.010,9.888,23.682
1.900,-1.116,0.496,-8.301,-2.808,40.100
1.875,-1.378,0.486,-1.343,-28.442,92.163
1.730,-1.378,0.444,5.554,-27.588,135.437
1.131,-1.190,0.352,23.193,-31.555,223.389
0.776,-1.054,0.371,33.508,-48.401,245.850
0.442,-0.915,0.436,36.133,-95.459,240.479
-0.324,-0.651,0.627,28.259,-113.708,227.295
-0.698,-0.608,0.739,32.043,-127.686,192.200
-1.069,-0.645,1.052,44.189,-127.136,169.861
-1.125,-0.654,1.184,48.523,-108.337,139.465
-1.224,-0.623,1.256,39.978,-89.111,135.620
-1.289,-0.608,1.193,24.963,-47.791,132.446
-1.261,-0.539,1.044,20.752,-34.363,124.695
-1.160,-0.464,0.979,4.883,-22.095,105.164
-0.905,-0.229,0.879,-3.723,-20.752,96.741
-0.820,-0.087,0.852,-6.775,-19.043,87.646
-0.756,0.165,0.871,-0.305,-18.372,84.167
-0.754,0.231,0.922,14.404,-22.278,69.153
-0.679,0.211,1.049,15.564,-25.574,55.176
-0.587,0.152,1.086,1.770,-28.198,24.231
-0.386,0.024,1.066,-6.470,-25.879,13.000
-0.307,-0.030,1.026,-11.047,-18.066,1.221
-0.194,-0.144,0.980,-7.446,-15.381,-1.709
-0.134,-0.192,0.983,3.662,-7.935,-2.808
-0.002,-0.231,0.997,7.141,-3.174,-2.014
0.054,-0.240,0.995,1.587,-0.305,-4.639
0.136,-0.291,0.978,-4.395,-2.258,-7.935
0.162,-0.325,0.968,-7.690,-3.540,-10.315
1.836,-0.565,0.622,20.508,16.113,-4.150
2.058,-0.766,0.530,22.156,3.418,7.996
2.270,-1.267,0.307,16.113,-2.625,21.973
1.931,-1.409,0.405,8.545,-23.560,86.731
1.530,-1.228,0.539,25.391,-22.644,147.522
0.462,-0.623,0.832,84.167,-10.376,256.409
0.064,-0.440,0.949,92.102,-19.714,264.648
-0.325,-0.480,1.102,48.828,-73.914,203.552
-0.425,-0.571,1.148,28.137,-90.698,174.072
-0.542,-0.631,1.179,29.907,-71.350,164.368
-0.785,-0.627,1.143,31.616,-54.932,166.626
-0.843,-0.585,1.076,14.832,-41.382,149.170
-0.849,-0.546,0.887,11.047,-36.865,138.123
-0.860,-0.547,0.792,26.062,-23.437,127.625
-0.850,-0.536,0.695,38.208,-20.203,123.413
-0.827,-0.503,0.710,49.072,-22.461,113.403
-0.816,-0.351,0.811,46.509,-24.719,107.422
-0.811,-0.252,0.880,32.104,-28.625,88.562
-0.755,-0.073,0.984,23.743,-30.212,76.660
-0.694,-0.005,1.000,15.808,-32.227,51.758
-0.538,0.026,1.016,15.198,-35.095,40.955
-0.480,0.009,1.026,11.230,-40.405,26.917
-0.448,-0.008,1.053,7.935,-41.748,23.254
-0.430,0.002,1.069,-0.305,-39.001,11.963
-0.308,-0.026,1.052,-6.531,-37.048,3.418
-0.245,-0.072,1.025,-12.024,-32.715,-6.409
-0.181,-0.153,0.981,-6.348,-27.649,-6.836
-0.146,-0.185,0.979,13.428,-14.709,-6.897
-0.059,-0.284,0.986,19.531,-10.254,-8.240
-0.036,-0.339,0.991,6.714,-10.193,-11.902
1.837,-0.796,0.227,-45.166,-37.964,19.592
1.899,-1.030,0.164,-35.706,-47.913,81.177
1.610,-1.180,0.063,-18.433,-43.640,132.568
0.927,-0.924,0.201,7.751,-56.458,197.998
0.637,-0.838,0.322,4.517,-80.017,199.646
0.108,-0.765,0.600,-1.282,-127.197,190.613
-0.201,-0.683,0.790,13.611,-134.216,193.909
-0.492,-0.567,0.987,53.650,-119.202,188.110
-0.819,-0.376,1.249,55.542,-110.291,171.082
-0.867,-0.328,1.296,23.437,-95.276,134.033
-0.949,-0.298,1.203,10.193,-80.994,123.718
-0.993,-0.292,1.105,26.062,-46.448,108.582
-0.996,-0.374,0.967,45.776,-35.278,99.487
-0.939,-0.449,0.934,71.899,-24.841,84.167
-0.803,-0.567,0.871,71.228,-23.437,80.322
-0.751,-0.589,0.863,56.274,-25.879,82.458
-0.731,-0.462,0.937,48.645,-26.550,88.318
-0.765,-0.324,0.982,30.762,-28.442,90.820
-0.787,-0.068,1.069,19.287,-31.982,80.078
-0.729,0.005,1.097,-6.287,-38.269,47.119
-0.546,0.069,1.089,-14.893,-36.743,35.034
-0.481,0.083,1.063,-15.686,-22.705,25.146
-0.400,0.092,1.006,-10.498,-13.733,21.667
-0.342,0.069,0.990,-1.526,-3.174,8.118
-0.163,-0.040,0.976,-0.488,-1.282,0.000
-0.088,-0.109,0.967,-4.395,-0.427,-10.132
-0.009,-0.214,0.936,-5.188,0.488,-11.902
0.017,-0.246,0.923,0.366,3.418,-12.207
0.083,-0.289,0.919,4.883,3.906,-11.475
0.118,-0.306,0.926,13.306,3.906,-8.179
1.857,-0.542,0.633,-43.945,-20.081,-47.913
1.891,-0.912,0.506,-1.099,4.517,19.775
1.828,-1.038,0.455,22.156,13.306,58.960
1.623,-1.136,0.495,38.635,-11.902,112.366
1.453,-1.134,0.545,33.875,-29.968,137.085
1.237,-1.097,0.581,20.325,-51.453,190.735
0.714,-0.939,0.624,13.184,-58.960,210.022
0.442,-0.845,0.651,1.892,-76.782,220.520
-0.067,-0.653,0.728,1.465,-83.923,216.553
-0.261,-0.550,0.774,10.864,-88.379,196.655
-0.566,-0.386,0.873,16.235,-88.806,182.373
-0.693,-0.344,0.923,27.588,-86.731,148.499
-0.879,-0.374,1.007,35.767,-82.703,131.409
-0.900,-0.417,1.043,48.828,-66.956,105.225
-0.845,-0.519,1.048,50.659,-55.237,100.830
-0.833,-0.542,1.007,52.307,-30.640,104.065
-0.812,-0.521,0.938,53.467,-23.865,103.699
-0.803,-0.492,0.946,51.636,-21.973,96.802
-0.774,-0.401,1.001,48.157,-20.386,92.896
-0.740,-0.347,1.025,31.006,-18.066,82.764
-0.648,-0.219,1.047,17.517,-20.447,77.148
-0.599,-0.151,1.038,-6.897,-29.907,66.711
-0.541,-0.020,1.037,-13.794,-35.034,61.646
-0.552,0.045,1.059,-15.015,-35.339,50.720
-0.556,0.148,1.100,-11.414,-29.053,42.664
-0.504,0.163,1.107,-7.935,-16.052,20.752
-0.342,0.103,1.091,-9.521,-10.315,11.230
-0.267,0.046,1.062,-14.038,0.977,-1.221
-0.166,-0.072,0.973,-14.404,4.395,-5.859
-0.112,-0.129,0.936,-7.996,5.920,-13.733
1.799,-0.582,0.507,-21.118,63.293,-35.889
2.018,-0.813,0.330,-16.724,48.340,-13.489
2.286,-1.321,0.057,-5.127,33.508,10.071
2.158,-1.600,0.021,36.560,-0.671,90.149
1.918,-1.589,0.072,60.364,-38.513,188.049
1.212,-1.350,0.304,59.753,-58.594,224.670
0.855,-1.168,0.419,48.401,-83.374,258.118
0.282,-0.849,0.521,40.100,-93.018,257.629
0.040,-0.755,0.546,30.090,-105.774,249.695
-0.476,-0.577,0.693,20.325,-127.625,227.173
-0.725,-0.466,0.824,34.058,-124.390,216.675
-1.013,-0.349,1.082,82.153,-96.985,184.021
-1.022,-0.361,1.182,91.553,-87.524,157.776
-0.979,-0.397,1.239,64.636,-73.242,112.061
-0.948,-0.487,1.137,46.448,-58.899,103.455
-0.948,-0.520,1.040,45.471,-28.687,96.375
-0.865,-0.538,0.974,55.054,-21.240,90.698
-0.789,-0.506,0.988,58.289,-16.663,79.407
-0.687,-0.344,0.987,49.561,-16.174,75.562
-0.657,-0.247,0.965,22.034,-22.888,62.561
-0.620,-0.113,0.948,8.057,-30.823,53.406
-0.595,-0.070,0.956,-11.292,-44.373,36.743
-0.504,0.002,0.994,-15.869,-47.852,28.564
-0.454,0.026,1.018,-18.494,-46.021,14.893
-0.384,0.027,1.057,-17.273,-39.978,10.376
-0.347,0.005,1.054,-12.634,-23.682,3.174
-0.246,-0.063,1.029,-10.681,-16.174,-0.549
-0.184,-0.104,1.000,-6.592,-0.854,-9.033
-0.044,-0.189,0.922,-4.822,3.845,-13.550
0.024,-0.227,0.894,-2.808,3.845,-20.874
1.604,-0.530,0.895,21.301,22.949,-17.212
1.781,-1.094,0.617,0.122,17.883,11.475
1.803,-1.341,0.545,-5.127,7.385,36.316
1.772,-1.549,0.553,-4.517,-15.259,95.032
1.632,-1.500,0.546,-14.221,-26.550,129.883
1.389,-1.372,0.520,-48.157,-52.734,193.298
0.767,-1.045,0.538,-54.504,-64.880,212.585
0.461,-0.884,0.613,-31.677,-71.899,230.957
-0.074,-0.536,0.810,-15.930,-68.359,231.934
-0.283,-0.386,0.888,-2.686,-66.040,211.853
-0.580,-0.232,0.987,-2.686,-67.810,194.031
-0.678,-0.191,1.005,3.174,-62.256,155.273
-0.813,-0.121,0.953,10.315,-54.443,138.733
-0.860,-0.120,0.898,31.250,-37.720,110.535
-0.885,-0.255,0.799,47.424,-30.457,99.548
-0.877,-0.350,0.798,89.172,-14.526,91.614
-0.870,-0.416,0.891,107.605,-4.456,93.262
-0.863,-0.380,0.954,109.863,8.606,90.393
-0.824,-0.225,1.026,87.891,5.432,81.543
-0.794,-0.145,1.011,30.029,-15.808,56.885
-0.748,-0.026,1.009,12.390,-26.672,46.570
-0.720,0.014,1.040,5.615,-34.363,32.898
-0.650,0.075,1.112,7.507,-32.043,27.832
-0.605,0.091,1.129,3.967,-22.888,15.747
-0.490,0.093,1.110,-1.465,-18.188,8.423
-0.426,0.089,1.091,-12.329,-11.047,-5.737
-0.302,0.031,1.028,-14.221,-6.409,-12.512
-0.241,-0.031,0.995,-12.390,-1.648,-19.043
-0.086,-0.179,0.932,-2.930,7.263,-28.442
-0.014,-0.247,0.905,0.427,10.559,-29.602
1.449,-0.741,0.837,4.028,-3.662,-17.090
1.701,-0.931,0.746,-18.127,-18.921,-4.456
2.000,-1.268,0.574,-28.870,-29.785,17.273
2.008,-1.367,0.510,-24.048,-35.339,101.196
1.712,-1.380,0.378,-13.855,-32.104,152.344
1.457,-1.303,0.335,-2.319,-43.762,227.417
0.876,-1.054,0.375,-3.174,-58.472,245.178
0.568,-0.902,0.435,-2.319,-81.726,261.536
-0.037,-0.604,0.561,5.249,-85.571,264.954
-0.297,-0.473,0.630,25.330,-88.440,248.718
-0.658,-0.249,0.793,31.738,-91.309,227.905
-0.780,-0.195,0.866,45.532,-88.928,183.044
-0.943,-0.229,1.010,58.411,-80.383,162.476
-0.969,-0.287,1.070,75.684,-58.289,122.559
-0.941,-0.428,1.134,72.937,-48.767,105.591
-0.896,-0.455,1.120,53.040,-30.212,82.703
-0.802,-0.410,1.017,41.626,-22.461,76.050
-0.770,-0.371,0.954,32.410,-10.559,69.763
-0.722,-0.328,0.880,38.452,-6.104,68.115
-0.686,-0.316,0.901,54.077,-4.578,63.232
-0.576,-0.269,1.000,51.331,-8.179,58.960
-0.533,-0.238,1.046,21.667,-19.714,47.485
-0.504,-0.163,1.096,4.333,-21.545,40.771
-0.483,-0.123,1.089,-18.188,-17.212,24.597
-0.371,-0.076,1.048,-24.902,-16.907,15.991
-0.301,-0.078,1.041,-30.579,-15.747,3.113
-0.164,-0.113,1.018,-27.405,-9.277,-0.244
-0.113,-0.135,1.000,-17.700,2.930,-4.028
-0.042,-0.180,0.970,-15.381,5.371,-7.324
0.001,-0.213,0.947,-16.052,5.981,-15.991
1.610,-0.555,0.856,9.338,3.540,-14.954
1.793,-0.708,0.786,1.770,12.207,-5.859
2.010,-1.062,0.569,-4.517,11.475,6.287
2.041,-1.222,0.480,-10.559,-3.540,58.533
1.862,-1.363,0.390,-5.859,-14.404,104.065
1.588,-1.305,0.365,8.362,-30.762,211.243
0.857,-0.984,0.380,14.099,-38.513,249.695
0.494,-0.799,0.434,24.902,-61.462,276.123
-0.161,-0.489,0.616,34.485,-71.533,270.996
-0.411,-0.393,0.724,52.917,-84.290,238.281
-0.827,-0.311,1.017,59.998,-88.562,215.637
-0.999,-0.347,1.171,78.796,-76.721,168.640
-1.068,-0.562,1.411,87.952,-62.195,146.179
-0.991,-0.638,1.451,77.332,-27.161,117.615
-0.883,-0.586,1.279,56.152,-12.634,113.403
-0.875,-0.508,1.131,25.513,0.671,108.765
-0.844,-0.401,0.932,28.870,3.357,106.384
-0.813,-0.368,0.919,55.847,7.874,105.408
-0.746,-0.278,1.020,65.552,8.240,103.699
-0.702,-0.220,1.076,54.871,2.380,88.989
-0.613,-0.114,1.138,33.813,-7.324,75.928
-0.575,-0.070,1.136,-12.939,-27.039,46.204
-0.437,-0.008,1.071,-26.917,-29.968,33.752
-0.366,0.009,1.029,-34.058,-26.306,19.653
-0.271,0.020,0.962,-31.738,-21.484,15.503
-0.215,0.001,0.941,-25.696,-11.169,6.165
-0.093,-0.083,0.893,-23.193,-5.981,0.793
-0.038,-0.136,0.874,-20.386,-1.953,-3.479
0.044,-0.220,0.847,-13.367,3.174,-6.409
0.094,-0.241,0.821,-11.230,5.615,-6.042
1.655,-0.419,0.780,55.481,42.236,1.709
1.870,-0.569,0.677,30.762,31.067,15.625
2.047,-0.877,0.425,18.738,16.907,35.278
1.985,-0.982,0.308,22.827,-13.550,100.708
1.662,-1.072,0.204,38.330,-28.442,137.329
1.380,-1.087,0.238,69.946,-66.284,201.172
0.672,-1.098,0.467,75.439,-87.097,221.008
0.344,-1.097,0.624,53.162,-122.253,231.689
-0.177,-1.035,0.915,32.959,-133.362,228.088
-0.373,-0.957,1.025,6.775,-130.554,219.971
-0.704,-0.716,1.209,7.080,-117.065,216.736
-0.825,-0.583,1.289,22.217,-76.721,201.416
-0.896,-0.377,1.343,26.245,-56.885,186.157
-0.874,-0.309,1.308,12.085,-33.508,147.949
-0.821,-0.209,1.146,1.038,-28.259,129.517
-0.808,-0.169,1.057,-4.517,-24.536,113.770
-0.805,-0.175,0.940,6.287,-19.897,89.722
-0.791,-0.223,0.924,20.325,-16.724,81.055
-0.744,-0.316,0.950,57.678,-4.089,72.083
-0.710,-0.343,0.975,73.547,3.235,69.824
-0.663,-0.357,1.038,74.646,6.409,62.439
-0.622,-0.350,1.047,58.105,4.150,55.664
-0.567,-0.343,1.038,6.714,-12.024,39.917
-0.498,-0.283,1.002,-19.226,-23.621,34.790
-0.472,-0.217,0.979,-45.044,-29.541,30.457
-0.409,-0.055,0.951,-43.884,-25.513,29.236
-0.380,0.009,0.955,-30.640,-16.846,22.278
-0.340,0.047,0.999,-23.682,-14.160,15.503
-0.293,0.049,1.012,-13.000,4.089,6.531
-0.168,0.021,0.997,-5.066,11.475,-0.427
1.616,-0.509,0.772,3.601,20.935,-14.709
1.760,-0.594,0.655,2.869,31.006,16.296
1.965,-0.759,0.448,6.714,28.809,31.311
2.001,-0.841,0.375,15.381,7.141,68.481
1.789,-1.020,0.301,23.682,-7.874,99.182
1.551,-1.117,0.352,65.186,-34.302,173.889
1.022,-1.208,0.648,89.600,-40.833,203.674
0.796,-1.224,0.805,95.398,-51.208,239.746
0.334,-1.130,0.948,72.876,-60.791,247.253
0.067,-1.018,0.958,26.550,-78.186,248.718
-0.454,-0.772,1.006,21.240,-78.430,244.263
-0.657,-0.698,1.016,28.259,-72.754,222.717
-0.962,-0.735,1.050,34.180,-73.059,207.031
-1.036,-0.795,1.104,58.960,-63.965,174.133
-1.041,-0.762,1.169,63.293,-54.016,161.255
-1.041,-0.645,1.140,41.016,-36.316,146.362
-1.097,-0.353,1.017,27.832,-30.640,139.465
-1.090,-0.240,0.963,19.470,-24.902,113.586
-0.922,-0.106,0.917,18.372,-25.024,97.412
-0.831,-0.064,0.896,10.498,-26.794,75.195
-0.672,-0.005,0.839,5.005,-30.762,68.359
-0.633,0.031,0.848,-5.066,-45.959,58.838
-0.646,0.121,0.941,-6.348,-49.622,54.077
-0.644,0.165,0.998,-1.709,-43.518,40.466
-0.531,0.180,1.057,-0.305,-36.926,32.471
-0.466,0.153,1.065,-2.991,-32.349,25.574
-0.379,0.074,1.036,-15.076,-22.461,13.611
-0.321,0.018,0.989,-17.090,-13.794,6.531
-0.162,-0.089,0.903,-11.047,-3.235,-5.432
-0.092,-0.134,0.869,-6.409,-1.770,-8.606
1.862,-0.485,0.454,-30.212,-20.081,28.687
1.869,-0.491,0.480,21.851,-20.813,83.191
1.732,-0.520,0.577,52.856,-16.785,110.779
1.480,-0.783,0.678,86.975,-26.978,149.109
1.289,-0.950,0.785,84.351,-42.358,166.138
0.848,-1.064,1.049,64.514,-63.782,195.984
0.638,-1.022,1.134,54.260,-65.796,203.125
0.256,-0.869,1.132,30.762,-61.768,207.703
0.058,-0.772,1.050,16.296,-57.434,206.116
-0.312,-0.551,0.869,-9.827,-54.810,192.139
-0.501,-0.443,0.833,-12.085,-55.542,181.335
-0.933,-0.381,0.894,28.320,-43.335,161.072
-1.093,-0.459,0.987,70.435,-27.832,148.987
-1.146,-0.630,1.190,134.644,3.357,114.502
-1.032,-0.688,1.222,92.590,7.629,83.130
-0.859,-0.610,1.112,44.861,2.747,78.796
-0.869,-0.465,1.006,-14.648,5.310,86.243
-0.884,-0.115,0.867,-15.442,8.423,86.609
-0.854,0.018,0.859,-7.935,5.310,80.688
-0.774,0.135,0.906,-0.244,-14.771,62.866
-0.722,0.140,0.918,-3.052,-21.423,55.603
-0.590,0.128,0.935,-14.587,-28.748,40.466
-0.512,0.115,0.931,-20.691,-31.006,32.166
-0.383,0.089,0.889,-30.579,-29.907,19.714
-0.325,0.087,0.857,-32.104,-25.146,16.235
-0.270,0.083,0.829,-22.766,-11.536,11.169
-0.152,0.040,0.805,-14.282,-5.188,7.751
-0.094,-0.006,0.809,-0.977,1.221,-0.732
0.038,-0.115,0.806,2.136,1.770,-4.395
0.107,-0.163,0.805,7.202,-0.549,-4.700
1.695,-0.397,0.530,-46.204,21.851,-22.278
1.807,-0.422,0.438,-22.705,31.311,17.639
1.933,-0.486,0.330,-6.836,32.593,36.865
1.940,-0.568,0.287,28.625,39.246,76.172
1.938,-0.893,0.178,51.941,35.706,97.290
1.910,-1.091,0.188,94.482,-3.174,155.884
1.652,-1.373,0.319,101.196,-24.841,195.190
1.409,-1.387,0.348,96.741,-52.307,271.057
0.776,-1.279,0.353,94.727,-64.453,298.218
0.427,-1.202,0.398,97.961,-87.097,323.242
-0.298,-1.002,0.605,105.774,-94.971,323.242
-0.621,-0.942,0.714,122.620,-115.601,288.635
-1.005,-0.968,0.999,120.117,-134.827,256.470
-1.133,-1.016,1.225,112.305,-145.752,206.055
-1.333,-1.061,1.637,118.225,-115.479,200.256
-1.338,-1.029,1.693,126.953,-68.726,199.646
-1.165,-0.918,1.534,115.234,1.404,182.556
-1.058,-0.852,1.395,88.318,8.118,166.260
-0.969,-0.795,1.249,33.875,-3.113,136.841
-0.865,-0.688,1.050,22.217,-6.165,128.906
-0.844,-0.610,1.014,26.062,3.967,127.014
-0.829,-0.391,1.007,31.616,10.254,128.723
-0.807,-0.275,1.000,26.123,5.493,121.338
-0.764,-0.071,1.009,13.367,-6.348,111.328
-0.775,0.009,1.029,-12.939,-26.367,87.219
-0.844,0.105,1.080,-15.381,-28.320,72.021
-0.841,0.117,1.126,-4.822,-22.278,36.133
-0.714,0.078,1.195,1.892,-10.986,20.630
-0.614,0.041,1.172,17.883,24.292,4.517
-0.444,-0.065,1.077,28.442,40.344,1.648
1.912,-0.478,0.676,16.052,4.089,-51.697
2.075,-0.636,0.660,50.049,35.095,-6.592
2.391,-1.144,0.489,54.626,44.189,14.587
2.561,-1.439,0.405,14.282,-7.141,80.750
2.417,-1.815,0.337,-9.827,-49.316,143.860
2.040,-1.819,0.302,-9.644,-71.045,295.593
1.026,-1.614,0.220,11.658,-59.021,351.807
0.506,-1.492,0.312,68.237,-65.369,391.846
-0.391,-1.306,0.892,91.003,-81.055,387.085
-0.789,-1.150,1.228,98.389,-85.632,360.290
-1.614,-0.556,1.595,97.717,-67.017,340.881
-1.900,-0.306,1.591,119.568,-21.179,258.667
-1.731,-0.441,1.451,134.338,-14.465,195.984
-1.399,-0.724,1.386,129.456,-13.000,103.882
-0.976,-0.996,1.123,108.826,-5.920,93.567
-0.954,-0.916,0.976,70.862,5.127,106.201
-0.979,-0.590,0.773,55.176,0.854,109.009
-0.963,-0.421,0.715,23.560,-30.396,93.262
-0.956,-0.133,0.751,13.855,-50.598,79.834
-0.977,-0.021,0.843,14.587,-67.444,56.213
-0.971,0.086,1.052,18.982,-62.744,45.776
-0.918,0.056,1.136,13.367,-43.640,21.851
-0.720,-0.082,1.186,2.136,-32.715,10.681
-0.610,-0.130,1.162,-16.602,-12.146,-4.150
-0.401,-0.177,1.089,-19.958,-3.113,-10.010
-0.296,-0.205,1.057,-21.484,11.047,-15.869
-0.118,-0.291,1.017,-17.578,20.386,-17.517
-0.041,-0.331,0.991,-14.465,40.039,-17.334
0.081,-0.376,0.919,-18.372,43.457,-16.418
0.146,-0.385,0.883,-24.597,39.185,-14.832
2.051,-0.537,0.569,-57.983,26.611,-84.351
2.288,-0.759,0.461,-19.836,35.828,-60.852
2.557,-1.256,0.220,-3.235,38.757,-22.217
2.549,-1.431,0.087,-13.855,-1.404,82.092
2.125,-1.603,-0.080,-24.658,-41.870,139.893
1.725,-1.594,-0.048,12.146,-83.618,269.958
0.631,-1.342,0.209,61.035,-73.242,329.102
0.092,-1.169,0.411,148.499,-60.303,371.704
-0.754,-0.823,0.915,155.029,-81.543,347.778
-1.072,-0.660,1.165,117.737,-123.718,263.428
-1.340,-0.566,1.464,105.713,-117.737,227.234
-1.325,-0.662,1.501,111.572,-65.491,189.026
-1.255,-0.838,1.460,110.413,-40.955,178.528
-1.232,-0.840,1.378,74.585,-14.038,159.180
-1.177,-0.700,1.074,51.392,-7.568,150.269
-1.108,-0.628,0.907,27.588,-4.944,134.094
-0.932,-0.536,0.717,26.611,-10.864,128.418
-0.881,-0.472,0.721,27.466,-21.118,125.671
-0.883,-0.258,0.842,23.071,-46.814,123.108
-0.888,-0.138,0.907,16.479,-57.739,118.103
-0.870,-0.032,0.954,-0.183,-72.144,96.130
-0.798,0.108,1.002,-8.484,-77.393,80.811
-0.772,0.146,1.032,-23.132,-84.045,51.147
-0.736,0.187,1.125,-27.161,-80.322,40.466
-0.697,0.190,1.162,-25.024,-49.438,27.283
-0.567,0.161,1.145,-18.799,-26.794,22.217
-0.479,0.122,1.094,-4.211,11.353,10.498
-0.298,0.015,0.964,1.343,23.743,3.845
-0.202,-0.033,0.900,7.324,36.804,-11.047
-0.009,-0.141,0.779,6.958,38.330,-16.479
1.725,-0.534,0.490,16.052,7.263,-25.391
1.913,-0.643,0.455,24.109,11.841,-0.610
2.215,-0.992,0.273,26.428,12.817,15.869
2.256,-1.185,0.129,-2.625,-21.912,54.565
2.057,-1.452,-0.019,-23.682,-59.021,83.557
1.769,-1.479,0.051,-0.793,-113.403,195.496
0.914,-1.291,0.275,48.340,-100.037,266.235
0.549,-1.135,0.290,134.399,-60.181,332.275
-0.191,-0.876,0.484,146.729,-82.581,323.547
-0.631,-0.820,0.757,149.475,-127.563,274.536
-1.083,-0.954,1.205,151.001,-120.117,239.807
-1.070,-1.070,1.280,117.859,-109.863,171.875
-1.017,-1.117,1.189,90.271,-105.896,156.006
-1.054,-1.030,1.079,66.406,-73.486,158.813
-1.161,-0.763,0.883,64.819,-60.120,157.043
-1.207,-0.641,0.843,54.199,-64.209,135.254
-1.255,-0.376,0.878,48.218,-67.566,123.779
-1.224,-0.242,0.918,38.879,-60.364,100.830
-1.099,-0.064,1.029,32.288,-56.213,88.867
-1.042,-0.016,1.083,18.677,-46.631,68.909
-0.946,0.033,1.123,15.076,-39.490,60.608
-0.884,0.054,1.106,11.414,-28.259,38.574
-0.737,0.056,1.081,9.277,-28.992,22.949
-0.670,0.012,1.099,5.310,-32.104,7.446
-0.509,-0.095,1.109,-12.329,-29.785,-11.536
-0.428,-0.141,1.082,-23.010,-22.339,-14.038
-0.319,-0.237,0.973,-28.381,-0.244,-10.986
-0.271,-0.275,0.915,-21.545,8.606,-8.911
-0.142,-0.353,0.876,-1.343,11.658,-10.437
-0.071,-0.388,0.884,5.127,12.024,-11.658
2.169,-0.325,1.001,-32.410,-33.020,-75.989
2.570,-1.044,0.851,-75.317,-25.696,-52.734
2.613,-1.329,0.689,-48.340,27.222,64.270
2.246,-1.457,0.458,-13.306,40.161,135.498
1.864,-1.376,0.439,17.456,-7.324,226.257
0.973,-1.139,0.602,2.747,-47.668,239.746
0.532,-0.976,0.728,-11.230,-79.285,253.052
-0.299,-0.621,0.948,12.695,-63.538,261.780
-0.619,-0.466,1.025,83.618,-20.142,250.366
-0.905,-0.357,1.037,101.624,-15.625,222.412
-0.912,-0.424,1.002,99.182,-31.738,160.583
-0.885,-0.612,0.989,96.619,-30.701,148.132
-0.950,-0.657,1.005,97.046,-19.043,150.879
-1.187,-0.710,0.960,95.764,10.681,165.100
-1.229,-0.717,0.949,90.637,15.259,157.959
-1.113,-0.624,0.983,67.688,5.371,124.390
-1.016,-0.522,0.993,51.270,0.305,111.206
-0.926,-0.398,0.994,26.489,-3.845,98.694
-0.830,-0.158,1.037,19.531,-5.615,96.252
-0.846,-0.058,1.081,11.047,-8.667,90.576
-0.887,0.098,1.161,8.972,-8.179,80.811
-0.839,0.137,1.184,0.244,-10.010,46.265
-0.663,0.114,1.189,-10.193,-13.123,27.527
-0.557,0.071,1.160,-30.884,-10.986,2.930
-0.381,-0.010,1.060,-36.011,-4.150,-0.610
-0.301,-0.034,1.001,-34.302,16.357,-0.610
-0.134,-0.093,0.886,-30.701,25.513,-2.258
-0.049,-0.142,0.841,-21.057,35.034,-10.681
0.111,-0.255,0.786,-15.991,35.767,-14.099
0.173,-0.302,0.775,-11.169,34.119,-15.869
1.733,-0.520,0.786,2.625,27.893,-57.251
1.947,-0.744,0.751,-7.690,22.400,-20.996
2.184,-1.141,0.520,-18.677,25.696,20.081
2.183,-1.276,0.324,-35.034,15.808,116.150
1.859,-1.465,0.071,-26.550,-3.418,170.410
1.478,-1.449,0.110,41.992,-25.635,288.513
0.501,-1.175,0.395,86.487,-22.156,329.590
0.067,-1.015,0.578,126.099,-35.645,329.590
-0.656,-0.825,0.960,111.877,-60.669,298.218
-0.979,-0.807,1.161,86.792,-94.299,228.088
-1.302,-0.787,1.476,93.872,-84.961,199.768
-1.305,-0.742,1.506,94.788,-41.199,165.955
-1.236,-0.617,1.281,75.623,-21.790,157.654
-1.212,-0.553,1.084,26.489,-8.057,139.587
-1.197,-0.478,0.793,11.597,-15.442,126.526
-1.170,-0.455,0.763,7.812,-38.391,102.905
-1.079,-0.317,0.835,11.719,-43.762,99.060
-1.038,-0.174,0.886,15.259,-41.382,102.539
-0.967,0.121,0.946,11.414,-39.734,99.792
-0.929,0.205,0.958,-11.169,-49.622,74.036
-0.854,0.280,0.984,-24.109,-55.969,57.922
-0.823,0.305,1.001,-32.959,-54.321,34.912
-0.740,0.306,1.023,-29.419,-45.654,26.184
-0.657,0.247,1.009,-13.855,-18.616,9.277
-0.461,0.060,0.962,-5.554,-4.883,3.784
-0.368,-0.025,0.932,-2.869,12.146,-4.639
-0.186,-0.148,0.856,-8.545,11.414,-11.475
-0.111,-0.192,0.824,-15.564,4.578,-20.020
0.005,-0.229,0.770,-10.864,5.676,-18.982
0.056,-0.255,0.781,10.559,7.019,-14.282
1.554,-0.404,0.938,21.484,35.950,-7.385
1.756,-0.520,0.916,23.743,38.757,15.808
2.066,-0.866,0.872,23.560,37.842,31.311
2.088,-1.281,0.892,24.658,38.696,88.013
1.937,-1.367,0.905,23.682,40.710,124.207
1.467,-1.257,0.846,6.042,35.278,171.326
1.238,-1.155,0.738,-10.315,21.912,182.007
0.996,-1.049,0.627,-26.123,-12.939,209.534
0.407,-0.786,0.566,-10.071,-16.907,231.628
0.044,-0.648,0.637,67.078,5.249,265.442
-0.434,-0.513,0.764,101.868,10.254,257.019
-0.504,-0.542,0.750,110.962,-27.283,208.496
-0.618,-0.710,0.730,99.121,-52.490,190.247
-0.737,-0.761,0.823,98.755,-61.035,188.049
-1.099,-0.647,1.060,101.013,-51.270,194.336
-1.260,-0.536,1.134,78.918,-46.692,171.692
-1.320,-0.343,1.202,59.753,-50.415,146.240
-1.292,-0.231,1.198,31.067,-43.213,111.328
-1.248,-0.031,1.127,28.137,-31.799,102.112
-1.203,0.023,1.089,40.161,-9.888,83.008
-1.048,0.075,1.040,47.485,-4.456,72.083
-0.957,0.086,1.037,45.227,-8.362,49.133
-0.793,0.061,1.046,31.616,-15.503,38.574
-0.739,0.051,1.039,-3.540,-25.391,23.743
-0.631,0.075,1.008,-15.991,-27.344,18.677
-0.568,0.102,1.005,-29.846,-30.701,7.935
-0.437,0.101,0.995,-32.349,-29.419,2.930
-0.385,0.080,0.978,-31.738,-24.658,-0.427
-0.259,0.000,0.925,-20.447,-10.193,-7.751
-0.194,-0.051,0.901,-14.648,-4.517,-11.841
1.644,-0.309,1.061,34.729,52.795,28.015
1.777,-0.430,0.974,13.611,76.965,65.430
1.977,-0.666,0.720,3.845,81.787,81.055
2.035,-0.808,0.583,-4.028,67.932,116.394
1.887,-1.042,0.456,2.502,48.584,144.104
1.690,-1.098,0.486,34.485,15.198,207.092
1.228,-1.113,0.536,46.570,6.592,231.445
0.979,-1.088,0.533,45.105,-25.696,256.348
0.375,-0.958,0.660,47.180,-47.119,260.315
0.084,-0.888,0.784,81.909,-60.303,257.568
-0.345,-0.812,1.005,102.051,-56.946,249.390
-0.513,-0.775,1.100,121.033,-60.608,217.712
-0.802,-0.664,1.308,125.366,-59.326,200.989
-0.904,-0.617,1.361,126.526,-33.752,171.020
-1.004,-0.602,1.334,115.479,-22.339,153.992
-1.000,-0.622,1.283,70.068,-13.794,118.591
-0.941,-0.618,1.100,47.058,-8.789,106.201
-0.902,-0.573,0.989,22.400,5.737,91.370
-0.787,-0.452,0.799,19.348,9.094,84.534
-0.734,-0.390,0.743,14.038,-3.052,73.120
-0.680,-0.262,0.707,7.996,-16.174,68.481
-0.661,-0.201,0.733,-11.047,-47.729,54.687
-0.644,-0.085,0.859,-20.935,-61.340,47.913
-0.650,-0.027,0.921,-40.100,-74.219,40.588
-0.651,0.077,0.993,-47.729,-72.021,38.574
-0.619,0.110,0.988,-46.204,-51.270,30.884
-0.495,0.091,0.976,-37.964,-39.490,24.719
-0.433,0.067,0.982,-24.048,-19.653,11.658
-0.280,0.034,0.953,-20.691,-10.742,3.235
-0.191,-0.001,0.935,-18.188,0.000,-13.794
2.082,-0.640,0.360,72.571,49.744,57.373
2.145,-0.863,0.287,95.886,56.763,121.643
2.084,-1.352,0.171,94.482,48.279,143.738
1.826,-1.696,0.292,68.298,-29.419,164.246
1.581,-1.769,0.459,57.251,-71.411,184.631
0.917,-1.635,0.688,54.565,-85.022,263.550
0.582,-1.482,0.687,52.551,-69.824,297.791
0.025,-1.184,0.660,35.767,-67.566,314.087
-0.212,-1.071,0.698,30.884,-76.599,306.519
-0.700,-0.851,0.953,57.739,-74.890,295.044
-0.912,-0.728,1.131,84.717,-61.890,288.879
-1.050,-0.636,1.271,119.446,-32.104,253.723
-1.145,-0.588,1.353,117.615,-23.804,225.586
-1.146,-0.635,1.316,88.806,-25.391,162.476
-1.094,-0.711,1.217,72.449,-31.433,137.573
-1.071,-0.684,1.173,50.903,-33.997,111.755
-1.007,-0.540,1.046,43.823,-31.250,102.966
-0.955,-0.461,0.972,23.682,-38.452,84.106
-0.866,-0.306,0.891,12.146,-48.035,77.209
-0.851,-0.223,0.896,1.343,-62.012,70.374
-0.824,-0.060,0.953,2.441,-64.331,66.040
-0.807,0.012,1.009,5.249,-67.261,52.917
-0.741,0.109,1.108,4.150,-65.308,44.434
-0.680,0.119,1.119,-1.709,-54.138,23.987
-0.537,0.059,1.101,-3.967,-46.265,13.733
-0.454,0.000,1.075,0.000,-21.423,-4.272
-0.274,-0.142,1.007,5.493,-7.385,-9.338
-0.187,-0.218,0.980,19.287,16.602,-13.367
-0.011,-0.334,0.936,26.062,27.527,-13.611
0.071,-0.372,0.907,27.649,37.964,-14.832