aX,aY,aZ,gX,gY,gZ
-2.010,0.006,1.302,17.151,-15.015,7.751
-2.596,0.188,1.667,21.423,10.559,-29.968
-2.686,0.272,1.826,15.991,24.841,-64.392
-2.706,0.329,1.895,-28.503,44.312,-144.531
-2.607,0.352,1.733,-64.697,48.462,-188.538
-2.471,0.346,1.539,-135.620,38.086,-285.034
-2.139,0.219,0.980,-154.663,18.921,-326.599
-1.923,-0.032,0.691,-119.751,-27.527,-386.291
-1.073,-1.169,0.447,-70.557,-41.321,-392.151
0.157,-2.305,0.637,23.926,-35.828,-324.768
0.682,-2.505,0.710,45.105,-20.630,-275.146
1.069,-2.440,0.673,11.047,-36.560,-226.929
1.549,-2.095,0.503,-12.695,-75.317,-224.426
1.778,-1.973,0.618,10.132,-100.037,-202.148
2.080,-1.598,1.037,27.832,-73.303,-174.622
2.067,-1.307,1.197,10.010,-34.302,-101.990
1.715,-0.707,1.344,-9.399,-31.006,-75.073
1.520,-0.476,1.323,-25.940,-16.113,-60.303
1.208,-0.163,1.133,-26.001,-0.977,-56.946
1.092,-0.072,1.023,-18.433,34.119,-43.213
0.925,0.026,0.846,-20.020,46.265,-35.950
0.865,0.048,0.776,-29.114,49.744,-22.705
0.765,0.053,0.750,-29.663,45.898,-13.489
0.706,0.042,0.779,-25.208,41.443,8.972
0.575,0.053,0.835,-22.583,41.199,16.052
0.538,0.054,0.846,-15.320,32.959,15.137
0.495,0.038,0.889,-12.146,23.926,14.343
0.458,0.033,0.924,-10.986,8.728,23.071
0.333,0.037,0.976,-9.277,9.827,30.457
0.281,0.052,0.975,0.366,24.841,36.194
-1.596,-0.611,1.294,38.574,-4.700,0.183
-2.004,-0.560,1.568,33.325,-1.770,-2.991
-2.791,-0.103,2.024,-10.254,51.819,-46.082
-3.141,0.470,1.749,-58.228,71.167,-90.210
-3.124,0.651,1.413,-164.368,40.100,-205.139
-2.927,0.561,0.785,-188.782,7.568,-263.977
-2.702,0.195,0.529,-157.166,-34.058,-367.310
-1.645,-1.042,0.381,-122.498,-53.101,-398.621
-0.824,-1.624,0.442,-90.088,-112.976,-397.949
0.693,-2.392,0.525,-94.238,-164.246,-375.305
1.263,-2.542,0.729,-66.711,-242.737,-298.889
1.691,-2.312,1.221,-22.705,-220.825,-242.798
1.681,-1.977,1.444,69.275,-98.450,-131.348
1.487,-1.139,1.885,79.468,-62.927,-94.055
1.338,-0.786,1.976,31.799,-59.814,-59.082
1.091,-0.308,1.923,4.639,-48.950,-52.490
1.072,-0.184,1.742,-32.837,14.404,-44.861
1.151,-0.078,1.254,-28.503,41.992,-45.532
1.234,-0.094,1.155,4.456,79.590,-48.767
1.280,-0.067,1.051,6.470,96.191,-39.185
1.184,0.018,0.940,-3.174,106.873,-24.963
0.939,0.172,0.722,-35.583,78.918,-4.944
0.822,0.202,0.700,-45.959,51.758,2.258
0.707,0.214,0.717,-41.199,40.588,18.738
0.508,0.239,0.751,-30.212,51.514,21.729
0.449,0.233,0.760,-10.254,65.613,15.930
0.387,0.178,0.785,-4.700,64.636,11.719
0.367,0.135,0.819,-1.343,51.575,5.371
0.351,0.049,0.918,-1.099,44.617,4.944
0.339,0.018,0.959,4.944,53.101,15.015
-1.406,-0.402,1.148,-19.836,-17.090,-5.493
-1.686,-0.461,1.240,-35.522,-14.587,-33.752
-2.084,-0.519,1.446,-43.274,0.916,-56.458
-2.167,-0.481,1.491,-67.993,37.720,-111.755
-2.216,-0.279,1.378,-86.060,48.401,-140.015
-2.248,-0.182,1.289,-120.605,50.293,-204.468
-2.234,-0.121,1.118,-133.545,49.255,-249.145
-2.084,-0.157,1.011,-139.343,32.104,-352.905
-1.444,-0.466,0.869,-130.432,9.644,-395.508
-0.940,-0.805,0.792,-103.882,-48.157,-409.485
0.190,-1.720,0.559,-82.764,-71.899,-374.573
0.758,-1.967,0.602,-52.795,-81.482,-332.520
1.627,-1.817,0.813,-7.446,-65.125,-263.916
1.881,-1.647,0.862,-3.723,-57.312,-225.525
2.219,-1.411,0.982,-0.793,-46.692,-138.977
2.359,-1.298,1.071,4.517,-38.574,-108.093
2.419,-1.119,1.189,6.042,-45.044,-70.801
2.127,-0.601,1.385,6.958,-52.490,-56.152
1.872,-0.365,1.428,14.099,-29.968,-33.936
1.389,-0.038,1.350,6.531,-5.981,-18.250
1.177,0.072,1.238,-19.226,29.297,10.437
0.832,0.213,0.976,-28.625,34.668,17.395
0.700,0.249,0.864,-33.875,38.147,21.790
0.553,0.264,0.694,-30.518,41.382,21.179
0.510,0.255,0.648,-24.231,43.945,20.447
0.467,0.226,0.646,-7.751,42.542,21.301
0.422,0.124,0.742,-1.892,40.527,22.705
0.409,0.097,0.787,-1.160,38.940,28.503
0.374,0.086,0.804,-3.235,38.940,30.884
0.360,0.068,0.793,-0.305,41.992,33.203
-1.690,-0.565,1.384,-34.424,-50.781,-33.203
-1.895,-0.476,1.545,-38.208,-35.217,-70.740
-2.225,-0.056,1.764,-44.922,-10.681,-86.609
-2.375,0.226,1.721,-98.145,44.189,-120.789
-2.561,0.617,1.272,-144.836,57.556,-150.024
-2.516,0.666,0.922,-209.229,25.146,-249.634
-2.077,0.349,0.389,-191.406,-13.245,-307.678
-1.648,-0.135,0.332,-140.869,-45.532,-352.356
-0.372,-1.594,0.410,-13.611,-58.533,-338.928
0.281,-2.081,0.519,31.677,-52.063,-284.668
0.826,-2.225,0.659,63.721,-39.001,-214.722
1.565,-2.009,0.904,56.763,-45.654,-203.674
1.767,-1.893,1.116,40.771,-73.914,-154.053
2.045,-1.651,1.575,36.743,-62.744,-120.850
2.101,-1.432,1.663,20.752,-1.648,-74.585
1.981,-0.812,1.503,4.639,14.465,-66.650
1.787,-0.506,1.356,-22.522,17.090,-55.603
1.419,-0.102,1.129,-28.687,27.100,-44.800
1.288,-0.025,1.028,-14.832,58.533,-25.452
1.010,0.039,0.885,-13.184,58.594,-21.667
0.903,0.059,0.857,-20.447,52.917,-16.724
0.822,0.082,0.834,-32.471,49.316,-5.249
0.685,0.099,0.809,-32.227,48.035,2.686
0.628,0.083,0.823,-28.870,39.673,11.841
0.565,0.062,0.829,-28.564,36.255,11.536
0.549,0.077,0.818,-25.085,32.593,9.888
0.506,0.106,0.825,-21.973,30.212,9.949
0.484,0.098,0.820,-19.775,26.672,10.376
0.431,0.057,0.817,-13.550,18.921,15.930
0.413,0.036,0.828,-7.629,17.761,20.752
-1.490,-0.267,1.162,-7.141,-31.250,-15.869
-1.710,-0.235,1.152,-6.775,-12.085,-44.250
-1.936,-0.114,1.202,-11.475,-2.502,-68.359
-1.983,0.018,1.240,-31.494,10.010,-122.559
-2.118,0.347,1.201,-40.588,19.348,-149.353
-2.105,0.446,1.087,-55.908,42.053,-217.651
-1.792,0.379,0.856,-64.026,41.260,-258.301
-1.486,0.160,0.754,-66.833,7.202,-321.289
-0.626,-0.717,0.577,-47.302,-14.343,-324.219
-0.126,-1.341,0.577,40.894,-17.151,-262.634
0.899,-2.234,1.145,86.426,11.353,-227.661
1.352,-2.270,1.450,56.641,58.960,-189.880
1.854,-1.816,1.360,-5.188,37.781,-174.194
1.958,-1.572,1.166,-66.101,-9.094,-141.785
2.071,-1.150,0.889,-53.711,-2.625,-118.530
1.990,-0.876,0.856,-21.912,9.766,-70.557
1.629,-0.359,0.856,-21.301,6.165,-54.443
1.415,-0.168,0.845,-23.254,13.367,-25.391
1.038,0.046,0.786,-18.127,20.691,-16.174
0.895,0.084,0.760,-4.700,18.921,-11.902
0.673,0.102,0.765,-4.333,18.127,-9.399
0.604,0.115,0.753,-5.371,35.217,-4.211
0.553,0.124,0.687,-1.709,42.542,-5.310
0.552,0.095,0.676,1.709,34.424,-7.446
0.542,0.011,0.734,-0.610,25.940,-3.784
0.522,-0.016,0.762,-4.700,21.667,7.568
0.476,-0.020,0.769,-3.296,23.560,11.597
0.455,-0.012,0.774,2.258,22.034,16.541
0.427,-0.017,0.812,4.700,19.836,18.066
0.419,-0.031,0.842,11.353,20.203,21.790
-1.218,-0.320,1.192,-17.578,-10.437,-40.100
-1.364,-0.357,1.231,-47.363,-9.277,-73.608
-1.727,-0.328,1.317,-62.744,-9.888,-91.370
-2.066,-0.123,1.372,-79.102,2.441,-130.859
-2.164,0.020,1.367,-86.609,18.738,-158.142
-2.201,0.177,1.332,-133.240,41.016,-240.479
-1.993,0.371,1.081,-171.997,30.334,-287.109
-1.788,0.346,0.823,-219.238,-26.306,-348.572
-1.053,-0.327,0.062,-195.190,-53.894,-356.140
-0.366,-0.971,-0.156,-33.630,-89.478,-310.181
0.955,-2.050,0.460,59.631,-86.182,-240.601
1.285,-2.267,1.031,129.395,-17.273,-103.821
1.885,-2.109,1.562,93.506,5.310,-97.534
2.151,-1.872,1.583,7.690,-50.781,-121.155
2.337,-1.347,1.766,9.705,-54.993,-106.079
2.258,-1.046,1.779,22.766,41.626,-42.236
1.905,-0.442,1.308,2.502,77.026,-19.531
1.695,-0.222,1.045,-35.461,73.547,6.958
1.235,0.082,0.742,-38.025,64.270,15.991
1.006,0.195,0.677,-30.273,56.580,22.278
0.728,0.259,0.610,-30.396,52.734,20.630
0.674,0.228,0.588,-26.550,42.908,28.503
0.537,0.199,0.625,-21.179,40.527,37.354
0.477,0.188,0.684,-13.184,38.696,42.786
0.432,0.156,0.791,-11.902,37.476,40.649
0.433,0.128,0.805,-7.080,36.621,37.231
0.447,0.060,0.828,-0.122,38.574,37.903
0.452,0.039,0.849,14.893,47.058,41.504
0.464,0.032,0.869,18.188,47.058,42.786
0.464,0.034,0.886,17.578,32.227,41.016
-1.410,-0.262,1.123,-24.109,-32.227,-34.363
-1.567,-0.158,1.148,-45.898,-14.893,-53.894
-1.867,0.111,1.152,-58.899,-6.470,-66.833
-1.991,0.212,1.141,-86.365,3.235,-118.042
-2.047,0.344,1.079,-100.769,-2.991,-158.264
-2.043,0.355,1.040,-107.361,-39.734,-242.310
-1.732,-0.035,0.980,-97.229,-43.518,-272.827
-1.339,-0.421,0.967,-37.659,-4.333,-285.339
-0.368,-1.189,1.056,-8.301,-1.343,-272.034
0.506,-1.614,1.254,-4.028,-55.359,-246.521
0.990,-1.814,1.281,-6.897,-73.853,-234.619
1.761,-1.843,1.333,11.719,-29.968,-181.091
1.973,-1.603,1.358,5.798,-21.118,-135.681
2.071,-1.040,1.321,-0.427,-41.016,-122.986
2.041,-0.870,1.305,6.165,-39.063,-86.670
1.899,-0.589,1.256,9.094,-19.470,-67.261
1.733,-0.403,1.189,-2.136,7.812,-29.419
1.338,-0.065,1.022,0.854,13.123,-21.301
1.183,0.014,0.947,-2.136,9.277,-17.029
0.937,0.063,0.837,-9.521,12.817,-9.338
0.834,0.070,0.783,-15.625,22.095,1.953
0.746,0.080,0.741,-17.273,37.903,22.583
0.595,0.112,0.731,-15.259,37.598,29.297
0.523,0.117,0.761,-14.343,28.076,37.048
0.388,0.099,0.826,-15.198,25.452,38.940
0.337,0.087,0.853,-10.986,31.555,41.199
0.269,0.068,0.889,-8.484,36.377,40.466
0.271,0.062,0.893,-8.423,39.246,38.574
0.300,0.040,0.892,-1.221,43.823,34.912
0.334,-0.030,0.901,3.418,37.598,32.837
-1.056,-0.400,1.291,-39.551,-27.893,-47.302
-1.181,-0.408,1.330,-54.199,-17.151,-69.702
-1.315,-0.390,1.314,-62.317,-7.507,-85.022
-1.331,-0.361,1.265,-90.942,-4.150,-115.845
-1.375,-0.243,1.172,-105.957,-9.827,-130.737
-1.390,-0.153,1.112,-123.169,-9.827,-167.419
-1.334,0.065,0.886,-124.573,-8.728,-188.477
-1.251,0.120,0.749,-104.858,-22.644,-229.614
-0.896,-0.020,0.604,-78.491,-30.640,-245.728
-0.619,-0.186,0.622,-12.146,-20.874,-254.700
0.075,-0.601,0.723,11.230,-2.991,-245.544
0.467,-0.814,0.751,10.437,19.226,-197.510
1.156,-1.075,0.814,-4.883,7.935,-168.640
1.412,-1.081,0.868,-9.338,-10.986,-148.193
1.824,-0.941,1.086,40.222,-25.024,-128.235
1.956,-0.862,1.223,67.505,-16.785,-114.197
2.044,-0.802,1.334,64.087,23.193,-75.623
2.072,-0.631,1.418,53.101,40.588,-62.439
1.969,-0.515,1.387,20.142,22.888,-45.776
1.656,-0.280,1.220,-4.578,3.174,-33.813
1.480,-0.159,1.125,-36.133,12.695,0.427
1.179,0.026,0.894,-36.499,34.973,15.930
1.048,0.084,0.792,-31.921,50.354,30.396
0.784,0.150,0.694,-22.888,57.495,57.922
0.653,0.176,0.679,-17.212,61.096,68.970
0.529,0.201,0.667,-6.165,54.871,73.975
0.392,0.211,0.700,-4.517,33.264,64.880
0.372,0.184,0.750,-4.028,-2.197,46.326
0.369,0.089,0.808,2.319,5.981,42.358
0.403,0.034,0.818,18.921,23.132,41.992
-1.023,-0.327,1.257,-52.124,18.127,-69.824
-1.100,-0.313,1.273,-77.881,15.991,-95.886
-1.295,-0.261,1.299,-94.055,9.583,-108.948
-1.399,-0.189,1.277,-121.094,1.648,-137.146
-1.493,0.078,1.083,-127.380,1.465,-157.166
-1.480,0.215,0.931,-126.343,-4.211,-215.454
-1.253,0.253,0.557,-120.972,-15.320,-248.230
-1.010,0.142,0.374,-82.947,-51.270,-299.988
-0.334,-0.377,0.137,-48.767,-65.674,-309.265
0.089,-0.679,0.172,11.902,-73.547,-273.926
0.921,-1.110,0.472,22.156,-72.144,-226.318
1.267,-1.263,0.675,48.950,-56.274,-108.765
1.793,-1.321,1.295,79.529,-26.917,-74.951
1.995,-1.171,1.589,91.797,8.789,-64.453
2.144,-0.945,1.794,34.729,-3.906,-90.515
2.200,-0.523,1.880,-0.916,-46.265,-101.257
2.125,-0.362,1.755,-0.671,-36.316,-84.839
1.757,-0.043,1.362,0.671,0.366,-59.814
1.545,0.077,1.165,-26.855,36.987,-22.827
1.227,0.211,0.899,-34.790,32.104,-15.015
1.064,0.244,0.832,-32.959,13.062,3.296
0.793,0.229,0.746,-25.024,12.695,13.794
0.704,0.204,0.730,-3.479,16.785,28.625
0.587,0.167,0.775,5.066,16.846,31.311
0.554,0.150,0.810,10.681,18.433,32.471
0.535,0.116,0.841,14.893,22.766,34.119
0.444,0.065,0.927,9.277,17.273,39.734
0.411,0.047,0.969,1.587,31.616,51.514
0.415,-0.001,0.998,1.038,41.260,53.345
0.436,-0.018,0.983,-1.282,44.495,55.847
1.302,-0.913,0.824,28.503,7.202,-82.275
1.475,-0.865,0.869,70.618,20.508,-47.058
1.624,-0.736,1.052,86.487,6.714,-45.532
1.631,-0.681,1.216,83.130,-42.114,-63.782
1.584,-0.586,1.483,65.186,-49.377,-65.125
1.526,-0.509,1.505,32.104,-10.437,-40.100
1.344,-0.320,1.384,18.188,13.489,-24.841
1.254,-0.254,1.294,-9.705,36.865,-5.310
1.079,-0.156,1.097,-20.569,42.664,4.028
0.989,-0.107,1.004,-32.043,46.631,29.175
0.783,-0.001,0.898,-35.461,43.396,41.382
0.683,0.039,0.866,-38.391,40.039,50.171
0.597,0.073,0.833,-37.292,40.283,55.176
0.480,0.116,0.793,-33.020,41.443,53.528
0.443,0.124,0.790,-24.109,41.931,52.002
0.397,0.131,0.792,-21.912,42.053,53.650
0.398,0.120,0.793,-18.555,43.884,57.068
0.431,0.086,0.795,-16.602,43.945,59.265
0.457,0.063,0.793,-14.099,41.138,61.462
0.484,0.039,0.800,-1.160,30.212,64.758
0.492,0.020,0.859,7.996,26.733,66.772
0.485,0.012,0.885,21.179,27.344,69.153
0.475,0.007,0.918,24.841,29.114,70.435
0.465,0.016,0.940,29.175,30.518,67.505
0.472,-0.001,0.965,28.564,29.480,62.866
0.482,-0.021,0.952,26.550,26.733,60.364
0.485,-0.035,0.934,27.344,19.043,66.589
0.462,-0.024,0.931,31.189,16.907,71.411
0.449,-0.013,0.940,38.635,21.240,75.745
0.445,0.002,0.942,39.917,26.062,76.782
-1.368,-0.208,1.173,-44.800,-18.860,-51.880
-1.585,-0.127,1.220,-67.749,-22.644,-90.210
-1.965,0.129,1.261,-78.369,-16.479,-117.249
-2.059,0.269,1.205,-109.314,-6.287,-192.810
-2.028,0.366,0.924,-125.183,-14.648,-229.248
-1.787,0.131,0.549,-131.042,-53.650,-270.691
-1.602,-0.107,0.407,-105.530,-68.970,-275.574
-1.165,-0.752,0.511,12.634,-64.575,-264.465
-0.822,-1.156,0.760,77.515,-35.706,-253.845
0.245,-1.897,1.257,102.234,41.931,-210.327
0.848,-2.058,1.372,60.303,57.434,-180.054
1.753,-1.953,1.355,-10.498,21.423,-156.067
2.118,-1.787,1.358,-10.559,1.465,-165.344
2.448,-1.535,1.401,-0.916,29.358,-147.217
2.525,-0.923,1.223,2.686,54.932,-114.929
2.306,-0.620,1.052,-6.592,41.443,-65.552
1.844,-0.184,0.953,-27.100,9.766,-47.180
1.489,0.013,0.972,-36.987,0.732,-24.475
1.297,0.069,0.932,-28.564,16.296,-12.451
1.099,0.110,0.890,-19.104,25.513,4.822
0.769,0.169,0.911,-18.677,22.522,11.414
0.652,0.187,0.934,-17.883,27.039,17.639
0.507,0.196,0.906,-18.250,31.799,18.921
0.471,0.188,0.881,-17.456,40.833,22.583
0.481,0.128,0.849,-15.503,44.983,24.841
0.498,0.087,0.848,-9.216,45.471,31.006
0.516,0.036,0.873,-5.615,41.077,32.288
0.524,0.023,0.881,2.991,26.062,33.508
0.528,-0.008,0.889,7.202,17.761,34.912
0.532,-0.028,0.895,14.099,2.747,37.781
-1.369,-0.329,1.048,-23.376,4.639,-72.693
-1.477,-0.309,1.089,-49.866,4.822,-108.459
-1.664,-0.158,1.175,-66.528,1.770,-131.226
-1.736,-0.040,1.215,-84.534,-0.305,-184.998
-1.787,0.177,1.173,-83.984,5.859,-215.393
-1.727,0.234,1.083,-78.125,17.151,-274.170
-1.425,0.068,0.831,-79.041,12.329,-297.791
-1.201,-0.172,0.665,-63.416,-17.517,-316.772
-0.517,-0.862,0.404,-30.884,-32.898,-309.875
-0.076,-1.208,0.445,54.382,-36.377,-248.352
0.737,-1.559,0.765,75.806,-20.996,-201.050
1.282,-1.524,1.024,56.702,22.461,-125.977
1.479,-1.451,1.060,33.936,33.997,-105.103
1.619,-1.332,1.108,14.709,19.165,-87.280
1.750,-1.037,1.276,18.738,11.719,-85.144
1.737,-0.720,1.424,17.090,23.926,-65.247
1.640,-0.567,1.431,12.268,32.837,-48.035
1.347,-0.339,1.286,-5.798,48.157,-28.381
1.206,-0.248,1.168,-26.978,54.016,-17.578
1.078,-0.170,1.040,-58.777,53.650,-2.258
0.922,-0.070,0.862,-59.875,53.284,1.221
0.865,-0.048,0.817,-46.875,60.486,12.146
0.735,-0.033,0.769,-38.574,61.707,17.517
0.686,-0.021,0.772,-26.489,50.354,20.447
0.639,-0.001,0.773,-23.865,41.138,23.193
0.605,0.012,0.775,-17.456,26.123,36.621
0.525,0.019,0.812,-12.451,22.949,41.443
0.507,0.003,0.845,-3.113,19.897,42.053
0.527,-0.047,0.897,-0.610,16.968,41.809
0.542,-0.059,0.907,1.221,13.794,45.349
-1.285,-0.079,1.173,-21.301,-2.075,-26.855
-1.348,-0.006,1.154,-33.691,13.855,-57.007
-1.434,0.133,1.095,-44.250,11.047,-76.172
-1.480,0.188,1.076,-66.284,10.010,-108.093
-1.647,0.341,0.993,-74.402,18.616,-122.192
-1.742,0.428,0.897,-71.655,43.030,-161.987
-1.816,0.459,0.683,-61.890,45.959,-190.552
-1.740,0.341,0.592,-37.659,15.808,-250.000
-1.365,-0.201,0.522,-24.109,-13.123,-266.113
-1.093,-0.583,0.575,16.296,-50.110,-253.052
-0.460,-1.248,0.939,47.974,-27.954,-231.384
-0.018,-1.462,1.086,84.412,88.867,-169.312
0.799,-1.505,1.120,64.514,123.230,-136.780
1.106,-1.463,1.014,-7.751,83.801,-121.887
1.814,-1.413,1.031,-14.221,46.936,-136.108
2.133,-1.322,1.167,2.441,28.687,-138.123
2.288,-0.847,1.242,-0.427,31.311,-115.845
2.158,-0.596,1.203,-18.066,18.921,-68.726
1.816,-0.268,1.106,-20.874,14.587,-54.382
1.660,-0.166,1.077,-16.724,13.367,-34.363
1.382,-0.058,1.017,-10.620,12.695,-28.503
1.249,-0.022,0.993,-12.756,23.560,-8.667
0.997,0.026,0.923,-18.372,31.921,-0.061
0.904,0.039,0.867,-23.560,38.696,9.705
0.759,0.066,0.771,-22.095,36.743,14.771
0.691,0.075,0.739,-17.151,27.893,26.489
0.545,0.084,0.725,-13.428,22.949,32.959
0.484,0.073,0.733,-0.244,20.020,40.833
0.440,0.031,0.762,7.935,19.897,40.161
0.451,0.010,0.788,15.381,17.029,37.170
-1.269,-0.369,1.096,-14.648,-22.766,13.489
-1.411,-0.323,1.145,-15.015,-2.747,-17.334
-1.626,-0.173,1.189,-25.635,3.357,-41.626
-1.725,-0.084,1.206,-59.387,6.226,-95.825
-1.887,0.086,1.111,-76.965,9.827,-124.817
-1.919,0.148,0.977,-99.731,14.343,-192.261
-1.869,0.159,0.724,-101.624,6.531,-227.844
-1.798,0.092,0.672,-82.092,-19.653,-285.217
-1.516,-0.203,0.607,-60.730,-30.151,-303.345
-1.289,-0.468,0.596,6.836,-39.856,-292.786
-0.674,-1.196,0.779,50.293,-28.870,-260.193
-0.298,-1.550,0.963,107.178,40.405,-185.120
0.689,-1.915,1.241,97.290,65.430,-162.720
1.163,-1.942,1.353,17.639,49.133,-140.503
1.911,-1.678,1.413,-19.714,37.964,-138.977
2.117,-1.422,1.342,-40.283,43.762,-131.165
2.298,-0.984,1.267,-35.095,50.964,-121.765
2.340,-0.801,1.260,-44.617,56.091,-89.844
2.115,-0.409,1.065,-55.481,47.729,-67.383
1.868,-0.228,0.963,-56.030,13.306,-40.039
1.385,0.005,0.878,-56.519,4.028,-29.480
1.196,0.066,0.840,-55.481,16.113,-1.648
0.900,0.119,0.760,-50.415,25.879,9.399
0.789,0.128,0.735,-40.466,34.729,19.165
0.644,0.143,0.712,-36.926,34.058,20.325
0.598,0.134,0.707,-28.809,25.452,23.315
0.506,0.090,0.728,-21.606,20.935,27.954
0.468,0.063,0.743,-6.775,19.714,35.583
0.445,0.019,0.745,-1.892,19.348,37.781
0.445,0.007,0.753,1.343,17.090,39.673
-1.661,-0.125,1.116,-9.460,20.264,-51.697
-1.820,-0.029,1.089,-37.292,43.213,-102.905
-2.070,0.286,0.974,-61.829,40.405,-133.057
-2.151,0.401,0.849,-114.502,4.517,-196.106
-2.150,0.337,0.453,-127.014,-24.841,-228.577
-1.851,-0.260,0.326,-74.341,-71.777,-278.687
-1.547,-0.760,0.471,-14.893,-65.857,-280.151
-0.667,-1.800,1.094,88.562,19.470,-240.234
-0.044,-2.156,1.327,92.102,67.383,-229.187
1.063,-2.281,1.502,19.897,51.758,-226.196
1.485,-2.192,1.615,1.648,19.714,-220.459
2.230,-1.822,1.643,4.395,46.265,-208.069
2.414,-1.553,1.479,0.061,75.806,-196.045
2.457,-1.272,1.309,-42.847,61.035,-157.043
2.343,-0.735,1.023,-78.369,36.438,-127.747
2.191,-0.475,0.871,-83.984,38.574,-80.933
1.777,-0.075,0.627,-69.397,49.866,-60.364
1.560,0.053,0.575,-47.729,37.415,-24.414
1.149,0.184,0.589,-37.903,22.034,-15.076
0.992,0.197,0.643,-19.836,8.301,-3.113
0.767,0.180,0.746,-14.343,9.705,3.784
0.689,0.173,0.757,-8.118,16.968,15.381
0.579,0.157,0.751,-2.930,19.470,19.165
0.551,0.116,0.760,10.437,20.386,23.682
0.535,-0.002,0.817,15.625,20.142,25.330
0.536,-0.045,0.840,19.348,20.508,28.625
0.530,-0.090,0.844,19.287,18.433,32.715
0.516,-0.093,0.838,17.761,9.033,41.260
0.501,-0.103,0.828,17.761,5.493,44.067
0.494,-0.114,0.829,23.010,2.014,51.575
-1.497,-0.370,1.121,-21.423,0.061,-26.062
-1.802,-0.315,1.201,-31.189,13.123,-59.387
-2.264,-0.004,1.239,-39.734,25.452,-81.116
-2.401,0.245,1.206,-67.383,39.124,-149.353
-2.563,0.625,1.004,-84.900,45.227,-186.645
-2.550,0.631,0.733,-125.366,42.053,-259.460
-2.193,0.208,0.131,-129.517,12.634,-300.049
-1.839,-0.275,0.015,-47.852,-47.241,-357.239
-0.735,-1.589,0.368,28.809,-39.124,-352.295
-0.130,-2.108,0.766,115.479,23.315,-273.682
0.776,-2.374,1.342,85.449,31.128,-239.563
1.117,-2.296,1.405,-18.738,-35.400,-216.431
1.653,-2.076,1.492,-31.250,-60.364,-208.008
1.891,-1.955,1.585,1.221,-19.653,-176.697
2.146,-1.574,1.643,0.488,6.287,-154.480
2.113,-1.298,1.572,-43.518,13.916,-107.422
1.875,-0.749,1.383,-62.439,15.381,-82.458
1.714,-0.505,1.282,-82.764,38.452,-32.593
1.326,-0.158,1.021,-80.627,47.913,-16.296
1.152,-0.077,0.925,-67.993,46.326,-10.742
0.926,0.011,0.803,-69.214,46.082,-6.165
0.837,0.070,0.731,-70.435,56.519,14.832
0.658,0.185,0.607,-65.491,57.373,24.597
0.576,0.202,0.589,-47.241,42.480,31.921
0.461,0.159,0.642,-35.400,34.363,30.212
0.439,0.119,0.679,-12.024,26.611,20.447
0.471,0.046,0.718,-4.456,21.912,15.198
0.495,0.021,0.714,4.211,6.958,16.541
0.487,-0.009,0.724,10.315,4.089,22.766
0.466,-0.027,0.745,27.893,9.277,34.912
-1.555,-0.311,0.996,-28.442,-37.170,-26.367
-1.877,-0.181,1.124,-11.292,-24.658,-62.866
-2.429,0.141,1.375,-9.583,-1.343,-87.891
-2.666,0.313,1.289,-55.481,38.269,-158.264
-2.634,0.313,1.064,-92.773,38.086,-205.017
-2.307,0.079,0.429,-130.005,-3.479,-295.898
-2.046,-0.214,0.214,-104.980,-28.564,-329.651
-1.094,-1.166,0.275,20.752,-20.996,-365.478
-0.493,-1.627,0.493,81.238,7.935,-348.328
0.649,-2.083,0.855,99.976,48.828,-268.433
1.138,-2.093,0.957,60.059,34.790,-236.877
1.723,-1.929,1.072,-12.756,-25.818,-189.392
1.919,-1.849,1.179,-11.353,-33.203,-172.852
2.123,-1.587,1.547,15.686,1.587,-136.108
2.090,-1.356,1.627,4.822,16.663,-114.441
1.776,-0.851,1.498,-46.204,12.085,-70.313
1.591,-0.651,1.426,-55.420,6.775,-53.467
1.427,-0.496,1.392,-52.734,17.334,-24.719
1.083,-0.270,1.241,-55.664,28.687,-11.963
0.769,-0.129,1.061,-66.406,43.274,1.099
0.660,-0.064,1.003,-70.068,49.438,5.310
0.595,0.005,0.927,-71.594,65.735,13.306
0.534,0.088,0.743,-68.665,68.848,17.029
0.514,0.086,0.698,-52.734,61.768,19.836
0.491,0.035,0.691,-41.199,58.167,19.836
0.503,0.009,0.684,-17.456,49.988,18.860
0.532,-0.041,0.685,-8.362,40.222,18.860
0.534,-0.062,0.713,3.723,15.259,21.484
0.515,-0.112,0.793,9.827,8.728,24.841
0.499,-0.138,0.822,22.705,10.132,35.583
-1.396,-0.117,1.107,-29.907,-22.522,-75.073
-1.519,-0.038,1.124,-34.058,-7.141,-112.244
-1.713,0.078,1.069,-38.269,7.874,-133.545
-1.799,0.166,0.949,-54.199,19.043,-191.833
-1.798,0.155,0.919,-60.425,0.122,-255.432
-1.650,-0.125,0.777,-60.913,-7.019,-276.550
-1.521,-0.408,0.661,-43.396,-13.550,-302.124
-0.982,-1.231,0.583,-14.160,-10.986,-312.500
-0.494,-1.666,0.712,59.021,7.935,-306.580
0.468,-2.110,1.173,69.031,17.700,-279.419
0.724,-2.013,1.303,19.653,24.475,-215.088
1.013,-1.571,1.244,-7.751,20.691,-197.327
1.148,-1.376,1.186,-20.508,12.329,-187.561
1.366,-1.138,1.246,-9.399,2.502,-169.617
1.446,-1.053,1.307,4.639,8.301,-155.334
1.501,-0.820,1.366,14.893,19.165,-129.028
1.486,-0.683,1.328,-1.038,22.339,-115.540
1.381,-0.467,1.184,-42.908,25.757,-83.740
1.331,-0.382,1.109,-54.199,28.015,-68.298
1.222,-0.239,0.973,-38.147,28.137,-51.575
1.162,-0.204,0.921,-28.198,16.357,-40.222
1.003,-0.169,0.868,-33.997,13.123,-27.649
0.897,-0.142,0.850,-40.344,16.174,-12.695
0.684,-0.062,0.804,-45.349,31.311,11.047
0.597,-0.026,0.768,-46.143,35.583,18.127
0.439,0.010,0.701,-46.936,33.630,31.921
0.377,0.023,0.687,-43.823,32.593,38.818
0.332,0.032,0.686,-31.738,33.264,46.204
0.312,0.031,0.703,-27.039,30.945,46.326
0.317,0.033,0.703,-22.522,23.376,47.241
-1.727,-0.057,0.963,-9.827,-3.357,-59.692
-1.876,0.021,0.948,-42.236,-6.958,-111.877
-2.106,0.188,0.953,-56.030,-16.418,-142.090
-2.197,0.221,0.912,-68.176,-14.832,-201.355
-2.122,0.022,0.624,-62.256,-6.409,-240.356
-1.593,-0.582,0.589,-13.855,-7.507,-317.749
-1.196,-1.027,0.696,19.897,-6.714,-336.548
-0.228,-1.905,1.024,69.885,11.353,-314.453
0.244,-2.170,1.194,77.148,22.095,-283.813
0.702,-2.261,1.360,62.195,29.724,-251.282
1.481,-2.026,1.649,37.415,23.804,-251.709
1.751,-1.839,1.663,-32.043,21.545,-232.056
2.118,-1.517,1.421,-49.622,39.612,-202.820
2.216,-1.326,1.249,-55.786,84.290,-131.470
2.106,-0.846,0.904,-55.603,86.182,-101.929
1.950,-0.590,0.800,-71.716,56.580,-61.096
1.628,-0.190,0.669,-79.956,50.659,-43.091
1.481,-0.048,0.607,-66.650,56.763,-8.240
1.152,0.113,0.560,-49.866,49.988,0.793
1.004,0.146,0.586,-29.114,24.536,8.179
0.770,0.174,0.666,-22.827,20.203,14.221
0.681,0.172,0.693,-7.324,25.879,25.269
0.580,0.129,0.729,1.404,24.963,25.330
0.564,0.089,0.751,18.372,12.756,20.203
0.554,-0.015,0.788,25.879,7.263,20.325
0.551,-0.070,0.812,35.583,2.319,27.039
0.545,-0.163,0.884,34.851,-1.709,31.738
0.529,-0.183,0.924,21.484,-14.709,43.030
0.485,-0.197,0.947,14.893,-15.747,50.720
0.454,-0.197,0.933,16.968,-3.601,69.031
-1.558,-0.177,1.331,-7.202,19.165,-65.674
-1.724,-0.094,1.303,-48.462,14.954,-121.338
-1.982,0.116,1.237,-72.388,-2.075,-158.264
-2.037,0.156,1.159,-92.407,-7.874,-231.140
-1.909,0.007,0.838,-85.449,3.967,-259.827
-1.758,-0.192,0.676,-53.101,21.667,-307.556
-1.209,-0.849,0.573,-31.250,20.569,-329.529
-0.807,-1.237,0.688,12.024,13.306,-335.083
0.134,-1.864,1.035,24.719,20.081,-305.237
0.587,-1.990,1.148,13.062,47.607,-216.614
1.314,-1.925,1.152,-10.986,50.354,-186.462
1.633,-1.835,1.087,-65.552,14.160,-170.349
2.055,-1.470,0.992,-78.247,-9.338,-160.950
2.091,-1.211,0.969,-57.495,-17.761,-111.267
1.843,-0.734,0.964,-32.776,-19.775,-88.745
1.655,-0.544,1.011,-31.311,-36.011,-49.194
1.295,-0.234,1.083,-33.447,-31.738,-35.950
1.147,-0.137,1.092,-25.757,-9.155,-18.188
0.894,-0.047,1.087,-25.208,-0.488,-10.925
0.789,-0.035,1.077,-27.100,13.367,0.061
0.633,-0.027,1.007,-27.649,21.240,0.000
0.599,-0.027,0.951,-33.508,33.752,1.282
0.541,-0.002,0.859,-35.095,38.269,4.517
0.510,0.019,0.821,-32.593,47.729,11.719
0.490,0.038,0.725,-30.518,50.720,14.526
0.505,0.024,0.682,-23.071,50.476,19.775
0.558,-0.022,0.648,-17.151,47.791,23.560
0.575,-0.031,0.661,-3.296,36.987,34.546
0.557,-0.028,0.701,2.991,30.884,40.222
0.536,-0.023,0.717,13.916,23.987,49.316
-1.464,-0.182,1.105,-13.916,-39.063,-81.177
-1.623,-0.126,1.168,-32.715,-10.010,-103.455
-1.925,0.030,1.103,-55.359,2.197,-125.183
-1.941,0.026,0.814,-99.609,-16.541,-199.036
-1.804,-0.070,0.677,-107.666,-47.791,-239.380
-1.369,-0.436,0.597,-67.810,-98.633,-292.236
-1.076,-0.686,0.683,16.663,-73.059,-288.635
-0.384,-1.175,0.965,47.363,-40.466,-265.320
-0.005,-1.390,1.078,52.307,7.446,-195.923
0.716,-1.653,1.259,40.039,19.531,-171.020
1.103,-1.694,1.365,25.330,26.611,-169.373
1.762,-1.536,1.544,15.625,16.113,-175.171
1.955,-1.345,1.586,3.296,5.676,-169.250
1.960,-0.947,1.492,-4.700,9.583,-136.292
1.892,-0.783,1.412,-18.921,12.939,-113.953
1.664,-0.486,1.220,-36.499,39.856,-68.665
1.528,-0.350,1.102,-33.508,60.242,-48.950
1.223,-0.095,0.878,-33.997,73.547,-18.921
1.061,-0.019,0.785,-37.354,70.862,-7.629
0.911,0.030,0.722,-31.677,76.416,10.803
0.662,0.100,0.673,-26.306,83.069,19.958
0.568,0.134,0.666,-15.686,89.416,34.302
0.453,0.172,0.663,-9.216,89.844,39.063
0.423,0.166,0.666,-0.488,75.745,41.687
0.437,0.119,0.715,1.526,56.458,37.415
0.472,0.087,0.762,6.226,14.893,25.635
0.540,0.020,0.843,11.536,7.324,24.109
0.564,-0.015,0.858,27.832,19.531,31.006
0.598,-0.073,0.849,34.424,24.719,36.499
0.611,-0.095,0.847,41.077,13.428,44.739
-1.418,-0.234,1.227,5.371,-51.025,-72.510
-1.495,-0.186,1.295,-11.169,-38.574,-120.178
-1.670,-0.099,1.335,-35.095,-34.668,-140.564
-1.762,-0.077,1.279,-90.454,-31.311,-183.655
-1.923,-0.013,1.040,-103.455,-28.870,-206.055
-1.923,-0.011,0.860,-82.825,-6.958,-246.643
-1.609,-0.341,0.545,-58.289,5.554,-260.864
-1.332,-0.692,0.527,-9.888,24.170,-269.531
-0.680,-1.293,0.707,2.380,32.532,-263.184
-0.351,-1.366,0.762,-6.470,22.522,-239.380
0.185,-1.188,0.842,-16.418,6.653,-230.957
0.399,-1.162,0.843,-17.578,-14.648,-218.811
0.904,-1.413,1.031,-1.831,-21.667,-212.402
1.171,-1.451,1.250,20.325,-31.982,-194.092
1.437,-1.135,1.530,9.521,-38.635,-176.575
1.410,-0.928,1.562,-18.921,-42.603,-130.066
1.304,-0.703,1.484,-18.250,-41.504,-114.624
1.359,-0.702,1.485,5.676,-23.315,-101.746
1.510,-0.652,1.527,17.639,4.028,-90.637
1.471,-0.535,1.419,10.315,60.425,-50.110
1.267,-0.286,1.073,-0.244,69.275,-34.790
1.175,-0.207,0.937,-20.630,50.720,-17.822
0.989,-0.141,0.825,-27.344,37.415,-9.033
0.878,-0.115,0.804,-31.738,29.053,13.550
0.634,-0.028,0.767,-30.518,32.043,25.146
0.542,0.012,0.742,-26.001,46.387,46.448
0.423,0.067,0.667,-21.851,54.382,56.030
0.392,0.069,0.636,-12.634,47.791,64.758
0.400,-0.009,0.669,-7.263,35.400,64.941
0.420,-0.058,0.704,7.202,28.625,72.327
-1.387,-0.232,1.073,-10.315,-11.963,-71.838
-1.549,-0.240,1.117,-21.667,0.488,-111.389
-1.954,-0.256,1.259,-21.667,18.005,-129.822
-2.123,-0.261,1.291,-9.338,85.571,-168.091
-2.116,-0.274,1.165,-9.644,117.920,-194.397
-1.916,-0.320,1.029,-49.072,118.958,-259.644
-1.253,-0.662,0.729,-76.355,91.431,-288.574
-0.813,-0.928,0.560,-78.674,46.875,-303.894
0.340,-1.391,0.293,-47.546,36.926,-291.687
1.324,-1.646,0.463,10.376,12.451,-247.192
1.615,-1.661,0.643,18.127,-1.282,-220.886
1.853,-1.613,0.832,11.780,-31.921,-183.533
2.124,-1.420,1.237,9.155,-49.683,-155.212
2.096,-1.289,1.439,22.644,-37.048,-96.497
1.955,-1.034,1.627,18.494,-12.146,-80.261
1.865,-0.895,1.560,-33.081,17.639,-55.725
1.601,-0.537,1.230,-61.890,26.062,-41.138
1.413,-0.351,1.029,-97.168,37.781,-13.245
1.016,-0.103,0.718,-101.562,34.973,-5.737
0.854,-0.043,0.640,-97.290,26.550,1.953
0.636,0.057,0.522,-90.637,29.053,6.470
0.561,0.103,0.489,-67.810,36.194,15.442
0.446,0.161,0.510,-54.016,38.269,18.127
0.412,0.174,0.547,-28.687,39.368,21.667
0.391,0.122,0.644,-18.799,36.072,22.278
0.406,0.071,0.700,-3.479,32.776,23.010
0.478,-0.030,0.760,2.563,33.691,25.208
0.518,-0.075,0.766,16.357,30.884,33.875
0.560,-0.141,0.792,24.475,27.527,39.185
0.563,-0.162,0.818,39.734,25.818,53.406
-1.292,-0.418,1.059,-50.110,-21.179,-12.085
-1.425,-0.380,1.090,-41.138,2.075,-64.575
-1.552,-0.326,1.117,-48.157,-0.977,-97.961
-1.585,-0.295,1.134,-74.646,-22.888,-157.715
-1.562,-0.141,1.087,-82.092,-21.545,-177.551
-1.554,0.002,0.989,-80.200,4.822,-200.195
-1.556,0.230,0.698,-75.378,16.968,-215.759
-1.501,0.230,0.537,-62.073,6.409,-258.057
-1.258,-0.109,0.313,-43.945,-11.658,-275.269
-1.026,-0.425,0.312,28.748,-24.780,-295.349
-0.389,-1.124,0.554,66.040,-15.320,-286.804
-0.074,-1.420,0.760,90.515,17.883,-249.512
0.597,-1.789,1.100,72.693,28.748,-232.117
0.865,-1.819,1.162,21.484,20.935,-187.561
1.322,-1.707,1.200,19.165,18.127,-172.302
1.608,-1.688,1.276,41.199,26.367,-160.767
2.038,-1.507,1.460,35.034,22.766,-148.987
2.049,-1.289,1.460,-5.737,17.578,-95.459
1.810,-0.786,1.278,-18.616,26.611,-66.650
1.662,-0.597,1.190,-24.536,31.677,-31.250
1.339,-0.361,1.085,-27.405,20.630,-23.010
1.185,-0.283,1.035,-33.630,7.568,-11.597
0.957,-0.173,0.924,-34.119,12.451,-2.136
0.842,-0.117,0.873,-32.959,24.414,22.644
0.634,-0.016,0.796,-31.738,26.794,31.555
0.570,0.003,0.770,-29.236,21.973,37.537
0.513,-0.018,0.752,-28.381,17.090,37.964
0.500,-0.039,0.738,-23.132,20.508,42.908
0.497,-0.065,0.690,-16.174,25.635,48.950
0.489,-0.073,0.691,1.099,23.865,62.378
-1.371,-0.385,1.069,-22.766,-18.433,-6.897
-1.611,-0.342,1.148,-25.269,-2.808,-30.518
-2.000,-0.160,1.186,-29.724,14.893,-49.744
-2.099,-0.026,1.051,-58.105,33.508,-120.117
-2.085,-0.011,0.990,-76.843,26.672,-164.978
-2.012,-0.063,0.858,-94.360,9.460,-239.136
-1.900,-0.140,0.748,-89.172,12.146,-264.587
-1.539,-0.494,0.545,-57.617,23.499,-297.791
-1.231,-0.835,0.545,-32.898,28.015,-309.326
-0.326,-1.609,0.820,13.184,33.447,-311.768
0.110,-1.871,0.981,24.109,32.654,-290.833
0.743,-1.969,1.064,19.836,19.531,-234.192
1.073,-1.952,1.103,12.390,7.690,-220.398
1.716,-1.766,1.123,-11.902,-12.817,-208.435
1.868,-1.546,1.091,-24.414,-23.682,-194.336
1.788,-1.015,1.049,-29.602,-32.349,-145.447
1.681,-0.782,1.061,-20.264,-24.841,-120.422
1.485,-0.455,1.110,-5.310,-0.366,-84.045
1.380,-0.348,1.113,-9.766,8.301,-69.458
1.176,-0.228,1.082,-25.024,22.522,-41.260
1.083,-0.183,1.047,-25.879,34.729,-27.771
0.993,-0.092,0.947,-28.015,39.551,-23.071
0.968,-0.068,0.891,-33.875,48.157,-2.014
0.856,-0.060,0.824,-33.813,51.697,11.536
0.785,-0.076,0.823,-30.640,54.016,31.860
0.682,-0.085,0.827,-29.419,54.260,38.696
0.660,-0.064,0.802,-28.564,54.260,44.556
0.649,-0.044,0.720,-26.794,42.419,52.734
0.659,-0.068,0.709,-23.987,28.564,54.932
0.645,-0.129,0.760,-10.254,8.423,63.965
-1.310,-0.402,1.094,-0.793,-15.442,-85.449
-1.391,-0.371,1.137,-25.269,-8.240,-120.300
-1.510,-0.227,1.235,-40.100,-8.118,-138.977
-1.678,-0.037,1.251,-66.284,6.714,-159.546
-1.759,0.057,1.130,-78.674,22.766,-170.471
-1.714,0.086,0.816,-99.548,26.550,-230.652
-1.560,-0.071,0.720,-102.234,10.132,-268.982
-1.301,-0.359,0.638,-75.928,-4.944,-304.749
-0.506,-1.093,0.538,-49.438,3.784,-293.274
-0.020,-1.426,0.544,10.010,21.851,-237.488
1.061,-1.823,0.897,36.133,29.968,-211.365
1.509,-1.780,1.131,26.428,50.293,-160.767
1.963,-1.304,1.259,-7.019,46.936,-139.099
2.029,-1.034,1.212,-46.021,28.809,-117.432
2.108,-0.725,1.107,-41.870,31.250,-111.511
2.161,-0.644,1.045,-32.227,43.945,-84.900
2.096,-0.376,0.901,-36.194,43.945,-62.317
1.943,-0.219,0.842,-46.204,37.109,-17.761
1.525,-0.018,0.771,-46.692,30.273,-4.150
1.328,0.026,0.764,-35.706,17.517,3.906
1.035,0.066,0.810,-27.161,18.188,6.653
0.912,0.088,0.825,-17.334,24.475,18.921
0.697,0.117,0.831,-14.099,24.780,24.414
0.617,0.096,0.841,-5.188,15.076,28.809
0.520,0.015,0.901,0.427,8.850,30.090
0.500,-0.018,0.926,8.057,9.216,36.621
0.490,-0.045,0.899,9.216,11.902,41.382
0.489,-0.050,0.863,13.550,7.141,46.021
0.491,-0.070,0.834,17.273,1.343,46.143
0.488,-0.087,0.844,23.987,-4.883,52.246
-1.219,-0.348,1.070,-45.837,-23.743,-81.177
-1.305,-0.318,1.051,-51.331,-3.967,-103.088
-1.344,-0.265,0.919,-68.115,-0.244,-119.080
-1.315,-0.270,0.835,-117.249,-16.602,-150.452
-1.243,-0.281,0.723,-132.690,-27.893,-163.940
-1.178,-0.307,0.711,-129.456,-30.640,-186.035
-1.038,-0.396,0.778,-114.868,-23.926,-191.956
-0.802,-0.527,0.839,-84.900,-16.174,-206.299
-0.568,-0.637,0.865,-65.369,-26.367,-220.581
0.120,-0.921,1.107,-6.348,-59.998,-247.131
0.469,-1.027,1.249,19.592,-67.993,-248.840
0.756,-1.070,1.356,35.645,-73.853,-221.863
1.132,-1.004,1.498,32.837,-73.547,-198.914
1.271,-0.946,1.527,36.682,-44.800,-159.912
1.528,-0.820,1.555,42.175,-21.484,-144.165
1.604,-0.619,1.460,49.500,-2.075,-119.385
1.567,-0.499,1.397,33.203,-10.559,-104.309
1.372,-0.265,1.259,-7.202,-1.648,-60.669
1.263,-0.182,1.154,-18.494,20.752,-41.626
1.078,-0.100,0.970,-30.396,49.805,-18.799
0.978,-0.071,0.913,-34.790,56.519,-9.460
0.812,-0.031,0.812,-42.542,71.411,6.836
0.753,-0.021,0.763,-44.983,77.515,14.526
0.632,0.033,0.668,-46.082,84.839,32.410
0.578,0.078,0.628,-44.983,85.205,40.344
0.534,0.123,0.590,-40.283,70.129,47.791
0.465,0.161,0.556,-35.400,54.077,47.424
0.447,0.145,0.586,-18.677,26.489,47.058
0.418,0.101,0.689,-8.179,21.545,48.889
0.401,0.104,0.732,9.216,18.372,54.749
-1.212,-0.377,1.037,-66.223,-70.251,-26.917
-1.338,-0.299,1.017,-84.351,-86.426,-66.406
-1.591,-0.103,1.036,-82.642,-86.609,-89.600
-1.683,-0.035,1.097,-68.787,-53.040,-120.422
-1.864,0.040,0.982,-66.589,-26.672,-135.376
-1.758,-0.026,0.682,-56.274,-18.066,-203.430
-1.554,-0.167,0.643,-41.382,-40.161,-243.042
-0.991,-0.674,0.651,-2.930,-59.875,-272.827
-0.635,-0.960,0.683,20.508,-41.748,-261.780
0.126,-1.302,0.870,58.228,5.554,-223.694
0.398,-1.281,0.944,59.326,10.498,-207.642
0.598,-1.203,1.001,43.701,-22.217,-200.195
0.954,-1.101,1.191,41.626,-36.621,-193.665
1.111,-1.081,1.293,50.293,-10.803,-167.541
1.442,-0.961,1.420,53.040,12.024,-163.208
1.628,-0.875,1.433,47.852,27.466,-159.424
1.795,-0.679,1.419,44.556,13.489,-154.724
1.788,-0.614,1.442,3.296,-4.211,-119.263
1.673,-0.452,1.384,-12.695,14.099,-92.957
1.566,-0.328,1.277,-30.701,49.561,-44.556
1.297,-0.116,1.031,-37.903,46.509,-31.738
1.184,-0.073,0.966,-46.448,30.334,-13.000
0.942,-0.031,0.913,-46.143,26.062,-4.639
0.833,-0.005,0.892,-42.969,25.940,13.916
0.647,0.078,0.855,-41.992,29.785,26.550
0.569,0.101,0.843,-37.231,30.579,44.434
0.483,0.083,0.850,-31.128,27.527,49.927
0.458,0.061,0.855,-14.771,25.452,60.547
0.421,0.055,0.847,-6.836,26.794,64.636
0.405,0.066,0.842,6.470,29.419,70.679
-1.167,-0.460,1.138,-19.165,-21.973,10.132
-1.343,-0.458,1.190,-19.043,-18.005,-17.822
-1.704,-0.282,1.315,-19.470,-7.996,-29.785
-1.845,-0.131,1.343,-37.964,23.010,-61.462
-1.894,0.074,1.203,-62.988,34.790,-88.318
-1.879,0.116,1.038,-116.211,16.785,-163.513
-1.716,-0.003,0.710,-118.530,-4.028,-207.825
-1.504,-0.182,0.653,-67.078,-23.254,-276.794
-0.875,-0.733,0.730,-32.043,-20.508,-290.466
-0.163,-1.167,1.023,0.488,-17.517,-279.785
0.083,-1.221,1.094,-9.460,-20.569,-255.188
0.410,-1.114,0.977,-42.847,-34.302,-196.411
0.558,-1.028,0.922,-40.100,-42.480,-172.302
0.817,-0.853,1.044,2.991,-26.794,-127.136
0.933,-0.786,1.097,15.320,0.732,-105.591
1.214,-0.687,1.127,0.061,37.598,-72.144
1.314,-0.567,1.119,-15.808,33.386,-66.345
1.466,-0.380,1.091,-15.686,-8.301,-96.558
1.614,-0.428,1.159,-8.789,-18.799,-107.727
1.777,-0.476,1.209,10.132,19.226,-87.830
1.721,-0.389,1.152,-15.930,50.293,-39.124
1.401,-0.124,0.983,-30.518,61.035,-18.738
1.235,-0.027,0.895,-38.635,71.594,-4.700
1.029,0.088,0.775,-47.302,69.641,5.737
0.953,0.110,0.748,-51.147,56.458,5.859
0.865,0.127,0.731,-52.917,44.983,13.672
0.709,0.189,0.663,-50.110,49.805,21.240
0.700,0.197,0.608,-33.936,54.810,34.119
0.778,0.130,0.539,-21.667,49.683,40.222
0.812,0.083,0.548,4.089,26.184,51.208
-1.554,-0.117,0.901,-67.932,-51.331,-125.427
-1.640,-0.074,0.847,-77.759,-84.290,-163.696
-1.633,-0.173,0.783,-65.002,-91.797,-173.218
-1.590,-0.271,0.826,-14.343,-80.200,-180.786
-1.502,-0.517,0.961,9.888,-61.768,-190.369
-1.327,-0.723,1.029,11.597,-36.072,-214.050
-0.630,-1.298,1.217,-12.878,-36.316,-205.688
-0.198,-1.470,1.236,-4.883,-3.113,-190.674
0.909,-1.622,1.319,50.964,25.574,-216.553
1.470,-1.660,1.489,102.783,24.292,-272.034
2.111,-1.441,1.670,81.665,20.569,-260.742
2.188,-1.250,1.577,29.541,46.021,-185.669
2.115,-0.724,1.270,-3.967,42.480,-150.452
2.053,-0.504,1.154,-15.991,29.724,-120.728
1.845,-0.214,1.004,-12.085,33.691,-106.812
1.693,-0.098,0.913,-28.931,59.692,-63.599
1.360,0.097,0.727,-38.391,71.350,-40.771
1.195,0.143,0.674,-41.992,83.191,-1.526
0.897,0.143,0.644,-38.025,93.079,14.893
0.776,0.132,0.636,-22.705,111.328,35.828
0.580,0.161,0.566,-15.869,102.112,35.889
0.508,0.179,0.567,-11.780,43.701,26.123
0.415,0.156,0.680,-9.644,26.733,25.818
0.399,0.122,0.713,-4.272,33.875,31.616
0.399,0.053,0.754,-2.625,36.194,33.142
0.396,0.032,0.802,-4.272,24.109,29.358
0.412,-0.013,0.890,-5.188,18.677,27.710
0.419,-0.031,0.918,-3.296,18.127,30.029
0.379,-0.037,0.957,5.981,31.067,40.588
0.356,-0.038,0.974,9.033,36.255,44.006