aX,aY,aZ,gX,gY,gZ
-0.446,0.334,2.66,19.714,-31.494,70.251
-0.473,0.347,2.886,-5.676,-32.654,39.49
-0.405,0.212,3.046,-34.79,-32.959,24.231
-0.369,0.129,3.011,-100.281,-41.748,7.202
-0.255,-0.036,2.778,-128.906,-44.373,-1.77
-0.15,-0.127,2.582,-188.721,-49.194,-17.517
0.105,-0.277,2.09,-218.811,-57.251,-21.301
0.218,-0.31,1.862,-264.709,-83.923,-20.386
0.336,-0.279,1.542,-277.954,-89.355,-17.517
0.344,-0.24,1.382,-286.743,-57.8,-12.268
0.333,-0.197,0.912,-283.386,-29.724,-8.484
0.32,-0.165,0.655,-259.033,-14.099,-2.686
0.182,-0.035,0.279,-243.652,-41.931,-6.775
0.094,0.03,0.182,-212.952,-124.207,-30.945
0.052,0.019,0.179,-187.378,-149.902,-48.462
0.091,-0.047,0.235,-124.023,-140.869,-72.632
0.194,-0.141,0.304,-99.976,-114.99,-75.684
0.215,-0.145,0.278,-74.402,-49.377,-72.449
0.154,-0.109,0.086,-64.392,-19.531,-70.007
0.107,-0.097,-0.005,-31.86,7.996,-76.477
0.137,-0.09,-0.058,-17.456,5.005,-82.947
0.197,-0.062,-0.047,-18.982,-12.024,-83.74
0.272,0.013,-0.021,-29.175,-13.855,-76.782
0.289,0.047,-0.018,-33.63,5.92,-55.42
0.32,0.098,-0.046,-22.888,24.963,-44.983
0.352,0.122,-0.081,13.123,78.857,-28.015
0.436,0.232,-0.215,30.64,102.051,-18.066
0.343,0.351,-0.209,55.603,59.387,-1.099
0.127,0.491,-0.063,49.316,16.296,-4.211
0.096,0.558,0.043,-24.536,-56.519,31.067
-0.584,0.621,3.174,-87.708,-26.978,18.555
-0.621,0.537,3.079,-109.253,-57.068,22.583
-0.632,0.434,3.026,-149.78,-96.191,18.494
-0.514,0.291,2.922,-175.72,-97.717,0.732
-0.32,0.122,2.679,-217.529,-69.824,-30.518
0.099,-0.131,1.994,-223.45,-56.824,-32.654
0.259,-0.189,1.697,-218.933,-48.828,-24.292
0.442,-0.157,1.208,-210.449,-40.222,-20.386
0.434,-0.112,0.918,-192.566,-2.991,-17.334
0.333,-0.072,0.361,-183.594,6.042,-18.616
0.26,-0.041,0.197,-157.593,-30.701,-32.227
0.113,-0.022,0.011,-143.433,-67.627,-43.884
0.107,-0.089,0.01,-103.943,-135.193,-66.467
0.193,-0.215,0.292,-75.317,-144.836,-77.698
0.254,-0.266,0.46,-44.983,-99.426,-96.985
0.368,-0.348,0.407,-52.673,-63.354,-94.788
0.348,-0.345,0.192,-55.664,-17.578,-79.712
0.27,-0.322,-0.026,-34.302,-13.55,-82.886
0.281,-0.302,0.036,8.911,-22.217,-98.328
0.352,-0.206,0.132,13.123,-24.414,-101.135
0.383,-0.17,0.12,-5.92,-16.907,-91.248
0.423,-0.119,0.061,-25.94,-13.916,-77.515
0.46,-0.105,0.031,-49.316,19.47,-48.096
0.692,-0.055,-0.131,-35.278,66.956,-31.982
0.737,0.035,-0.262,39.917,170.593,13.123
0.291,0.349,-0.524,86.792,184.509,23.621
0.09,0.497,-0.585,38.452,58.411,38.513
-0.172,0.803,-0.221,-40.833,-44.312,61.768
-0.12,0.797,-0.101,2.686,-51.025,51.88
-0.293,0.83,0.12,51.392,-29.297,61.829
-0.51,0.508,2.056,-21.057,-14.221,60.303
-0.641,0.571,2.344,-10.254,3.357,41.321
-0.622,0.536,2.485,26.367,34.729,7.996
-0.565,0.383,2.763,41.565,36.072,2.686
-0.535,0.275,2.926,57.312,19.47,1.038
-0.427,-0.036,3.124,57.068,10.742,-2.991
-0.363,-0.194,3.066,-5.127,-24.78,-4.211
-0.198,-0.413,2.705,-61.829,-52.185,0.427
-0.119,-0.451,2.449,-163.94,-81.787,3.174
0.05,-0.478,1.882,-193.298,-77.271,-1.465
0.128,-0.471,1.598,-220.459,-57.068,-3.784
0.226,-0.378,1.109,-226.135,-52.124,-2.747
0.218,-0.283,0.927,-228.088,-49.072,-3.296
0.124,-0.113,0.615,-225.586,-43.335,-5.981
0.133,-0.094,0.458,-207.886,-39.063,-18.982
0.167,-0.104,0.231,-196.655,-56.274,-25.085
0.117,-0.095,0.221,-169.617,-109.619,-48.096
0.073,-0.093,0.355,-146.179,-118.835,-69.153
0.123,-0.136,0.366,-97.778,-86.975,-105.957
0.252,-0.256,0.163,-88.013,-70.313,-108.459
0.254,-0.264,0.07,-87.463,-72.388,-101.807
0.249,-0.261,0.028,-78.125,-76.965,-106.567
0.3,-0.263,0.041,-38.635,-58.899,-112.061
0.377,-0.191,0.063,-21.912,-38.879,-105.347
0.368,-0.139,0.047,-13.184,-8.667,-90.393
0.352,-0.042,-0.018,-21.301,-11.414,-83.984
0.366,0.004,-0.036,-40.771,-35.156,-67.261
0.395,0.099,-0.009,-41.626,-37.842,-55.237
0.403,0.148,0.021,-31.067,-8.972,-24.597
0.335,0.239,0.064,-24.841,11.658,-8.85
0.355,-0.32,1.557,-196.96,-15.015,21.79
0.391,-0.3,1.416,-219.421,-53.223,24.963
0.422,-0.218,1.264,-235.168,-71.899,24.597
0.383,-0.165,1.154,-277.1,-66.101,26.428
0.218,-0.063,0.799,-286.011,-37.537,26.672
0.14,-0.018,0.585,-257.263,30.273,19.958
0.033,0.068,0.134,-232.971,39.307,13.245
-0.001,0.092,-0.056,-192.383,-47.974,-10.01
-0.021,0.083,-0.057,-168.945,-127.38,-25.269
-0.007,0.068,0.13,-112.854,-212.402,-62.195
0.17,-0.09,0.403,-83.313,-182.434,-79.651
0.283,-0.172,0.38,-35.461,-51.819,-79.102
0.277,-0.166,0.164,-24.78,-2.197,-68.054
0.222,-0.126,0.067,-16.479,23.132,-57.129
0.196,-0.083,-0.022,-9.338,9.766,-56.824
0.22,-0.05,-0.001,3.296,-36.743,-49.744
0.219,0.068,0.142,2.991,-54.26,-44.983
0.201,0.104,0.21,0.488,-52.124,-36.194
0.187,0.149,0.292,0.488,-40.1,-28.87
0.18,0.177,0.312,-0.793,-19.165,-11.658
0.143,0.253,0.341,-1.221,-12.634,-3.113
0.08,0.33,0.371,-1.404,-0.061,12.512
-0.085,0.494,0.408,-2.991,4.517,17.029
-0.14,0.544,0.423,-10.132,-5.798,18.677
-0.177,0.575,0.482,-15.381,-17.822,17.761
-0.17,0.575,0.533,-19.653,-27.771,16.724
-0.148,0.588,0.615,-20.691,-22.217,15.381
-0.146,0.598,0.609,-19.531,-7.69,15.686
-0.178,0.643,0.496,-19.897,15.32,17.883
-0.198,0.668,0.447,-21.729,11.536,17.395
0.401,-0.47,1.311,-261.658,41.382,20.691
0.464,-0.464,1.111,-274.048,11.597,32.837
0.491,-0.414,0.925,-291.138,-46.814,55.359
0.455,-0.273,0.567,-286.133,-55.603,56.885
0.426,-0.24,0.407,-233.765,-23.499,44.495
0.37,-0.189,0.178,-196.045,1.648,40.71
0.312,-0.15,0.069,-139.465,17.7,41.87
0.199,-0.087,-0.182,-140.076,-23.254,42.664
0.176,-0.083,-0.184,-155.762,-100.586,38.94
0.302,-0.175,0.124,-152.71,-226.135,7.812
0.395,-0.218,0.282,-114.197,-216.064,-9.46
0.434,-0.214,0.348,-24.78,-89.783,-19.714
0.328,-0.123,0.243,-6.958,-32.959,-16.296
0.247,-0.06,0.173,-22.339,-4.333,-5.859
0.115,0.072,0.13,-30.762,-14.099,-2.563
0.071,0.141,0.154,-28.748,-34.973,-0.671
0.028,0.26,0.224,-27.466,-41.138,-1.099
0.021,0.293,0.246,-30.884,-41.687,-3.296
0.001,0.334,0.302,-33.447,-38.879,-3.479
-0.005,0.36,0.344,-35.767,-34.363,-3.662
0.003,0.38,0.367,-41.992,-18.127,-0.122
0.017,0.421,0.326,-44.25,-9.766,7.019
-0.013,0.47,0.305,-38.269,0.488,20.874
-0.099,0.584,0.328,-31.128,4.883,22.095
-0.129,0.623,0.343,-19.653,10.925,16.296
-0.153,0.659,0.343,-17.517,7.629,12.39
-0.151,0.672,0.351,-18.188,-2.075,8.972
-0.143,0.682,0.375,-22.949,-26.489,3.54
-0.132,0.693,0.426,-23.315,-31.311,1.709
-0.127,0.687,0.441,-15.198,-22.034,1.892
-0.27,0.66,2.254,-80.017,25.391,28.503
-0.337,0.816,2.573,-89.844,28.137,19.287
-0.361,0.857,2.766,-124.573,12.756,9.644
-0.348,0.843,3.017,-151.428,5.859,1.831
-0.294,0.774,2.99,-187.378,13.916,-17.456
-0.148,0.564,2.803,-191.711,17.761,-18.86
-0.091,0.446,2.729,-194.824,10.681,-8.057
0.02,0.163,2.45,-200.073,9.094,-3.296
0.1,0.023,2.2,-214.844,23.621,3.235
0.276,-0.186,1.619,-224.609,30.212,7.202
0.362,-0.249,1.353,-242.31,18.738,23.987
0.459,-0.276,0.881,-247.742,4.7,38.574
0.427,-0.211,0.629,-248.779,-9.399,68.298
0.265,-0.022,0.225,-234.07,-8.179,69.763
0.226,0.016,0.133,-163.452,6.531,42.236
0.24,-0.013,0.053,-120.972,9.644,26.489
0.24,-0.04,-0.006,-89.355,-2.014,16.663
0.235,-0.048,-0.075,-82.581,-84.29,13.794
0.234,-0.026,-0.071,-85.266,-139.221,8.24
0.273,-0.022,0.161,-43.518,-190.063,-21.667
0.293,-0.026,0.263,-16.724,-174.561,-36.133
0.295,-0.05,0.314,-2.38,-105.896,-42.48
0.251,-0.044,0.278,-12.268,-71.472,-34.668
0.191,-0.017,0.216,-21.057,-23.376,-18.066
0.094,0.09,0.105,-11.78,-14.099,-15.076
0.07,0.158,0.106,11.414,-23.376,-19.287
0.06,0.259,0.192,15.93,-31.189,-22.827
0.059,0.286,0.226,12.146,-30.762,-21.912
0.046,0.324,0.261,10.193,-22.949,-19.653
0.052,0.342,0.271,10.193,-10.254,-16.541
0.628,-0.478,0.596,-184.57,30.029,56.458
0.548,-0.358,0.462,-179.077,51.819,86.06
0.422,-0.195,0.151,-171.082,62.439,95.398
0.362,-0.129,0.036,-125.488,63.171,100.525
0.156,0.038,-0.102,-100.83,42.297,89.783
0.061,0.106,-0.187,-113.586,-75.867,42.419
0.016,0.118,-0.172,-127.014,-155.029,12.878
0.062,0.093,-0.049,-86.365,-221.374,-42.419
0.176,-0.009,0.171,-44.128,-188.66,-61.096
0.215,-0.061,0.188,18.921,-70.068,-65.369
0.202,-0.065,0.17,29.48,-23.804,-55.298
0.175,-0.018,0.187,15.442,22.339,-31.494
0.12,0.132,0.181,-5.676,26.794,-23.01
0.092,0.198,0.132,-52.917,-9.46,-16.357
0.029,0.287,0.113,-64.209,-36.499,-17.578
0.02,0.306,0.172,-53.284,-58.838,-26.855
0.058,0.305,0.312,-40.039,-50.598,-29.907
0.086,0.308,0.366,-26.489,-19.104,-23.743
0.118,0.366,0.415,-27.466,-4.028,-14.832
0.101,0.417,0.413,-32.837,20.264,6.836
0.026,0.498,0.394,-31.921,29.541,14.404
-0.003,0.527,0.392,-21.179,38.574,19.958
-0.068,0.601,0.418,-13.916,37.72,18.677
-0.104,0.639,0.436,-7.08,33.203,14.954
-0.135,0.666,0.439,-8.301,4.761,3.174
-0.113,0.651,0.456,-15.991,-17.761,-1.831
-0.047,0.621,0.53,-28.137,-42.969,-0.61
-0.038,0.631,0.551,-30.457,-36.987,5.432
-0.067,0.66,0.549,-27.893,-8.911,16.357
-0.186,0.736,0.478,-26.489,-5.493,16.113
-0.352,0.286,3.059,-61.218,-4.944,36.682
-0.437,0.31,3.098,-81.238,-21.423,37.598
-0.463,0.204,2.992,-95.276,-26.55,27.527
-0.393,0.078,2.811,-144.775,-36.255,3.906
-0.125,-0.204,2.348,-166.809,-29.663,-4.333
0.031,-0.305,2.077,-204.407,8.118,-5.859
0.275,-0.401,1.457,-221.924,22.705,0.427
0.372,-0.421,1.165,-238.159,21.057,17.334
0.512,-0.384,0.753,-234.863,7.812,25.635
0.519,-0.307,0.62,-221.863,-30.029,35.95
0.426,-0.187,0.469,-214.6,-42.175,33.997
0.409,-0.181,0.424,-187.073,-35.889,20.447
0.365,-0.156,0.31,-166.321,-33.386,11.78
0.298,-0.141,0.24,-131.958,-56.396,-8.667
0.196,-0.13,0.142,-119.202,-72.388,-17.334
0.171,-0.115,0.143,-86.243,-84.229,-40.039
0.184,-0.126,0.171,-68.665,-76.172,-53.772
0.212,-0.148,0.161,-57.922,-63.232,-61.646
0.215,-0.119,0.078,-62.866,-39.734,-51.819
0.185,-0.071,0.018,-72.388,-31.433,-43.457
0.118,0.013,-0.084,-83.374,-29.297,-41.809
0.115,0.051,-0.089,-74.158,-34.546,-46.631
0.156,0.137,0.001,-32.776,-35.278,-49.377
0.174,0.172,0.056,-15.259,-27.283,-45.41
0.181,0.246,0.165,-16.602,-16.113,-30.273
0.15,0.287,0.197,-35.706,-20.142,-21.24
0.114,0.324,0.199,-70.862,-42.175,-8.179
0.089,0.38,0.199,-72.021,-51.27,-3.906
0.093,0.409,0.231,-46.265,-44.312,2.686
0.082,0.48,0.303,-29.358,-27.771,6.47
-0.545,0.258,2.854,10.071,18.066,-8.484
-0.303,-0.05,2.792,18.127,43.579,-14.648
-0.167,-0.204,2.739,40.527,55.115,-6.714
0.05,-0.431,2.799,22.827,26.733,0.427
0.109,-0.507,2.771,-95.947,-63.538,2.502
0.28,-0.669,2.37,-158.691,-94.238,-0.244
0.378,-0.709,2.112,-219.666,-87.708,8.85
0.476,-0.619,1.693,-223.816,-62.317,15.32
0.488,-0.553,1.52,-231.384,-31.006,19.226
0.491,-0.474,1.176,-254.15,-34.18,19.043
0.487,-0.442,0.973,-305.725,-41.321,21.912
0.44,-0.368,0.548,-309.082,-31.738,22.766
0.42,-0.343,0.355,-278.87,-4.639,15.991
0.362,-0.303,-0.001,-261.047,-5.31,9.338
0.292,-0.266,-0.159,-225.647,-49.377,-8.545
0.1,-0.177,-0.32,-198.486,-81.665,-23.56
0.05,-0.148,-0.318,-138.855,-134.399,-63.232
0.046,-0.118,-0.217,-115.906,-151.367,-81.055
0.068,-0.125,-0.154,-83.679,-152.344,-104.492
0.154,-0.172,-0.081,-72.449,-135.864,-106.873
0.192,-0.15,-0.058,-53.04,-82.336,-90.21
0.19,-0.013,-0.016,-42.236,-48.889,-80.2
0.178,0.044,-0.02,-18.005,9.705,-68.359
0.148,0.131,-0.017,-9.216,24.475,-61.707
0.125,0.172,-0.005,-20.203,13.123,-40.955
0.062,0.279,0.078,-38.025,-11.108,-31.189
0.053,0.332,0.141,-55.664,-48.279,-23.071
0.122,0.376,0.266,-48.218,-42.236,-21.667
0.174,0.378,0.296,-25.33,9.766,-6.348
0.125,0.478,0.295,-16.541,31.921,9.644
0.257,-0.137,0.221,-86.731,-82.153,-38.452
0.229,-0.167,0.262,-80.627,-83.435,-52.612
0.272,-0.245,0.244,-81.055,-76.111,-73.914
0.35,-0.313,0.08,-92.041,-80.627,-70.557
0.318,-0.257,0.002,-106.934,-104.553,-57.19
0.214,-0.145,-0.052,-97.961,-107.239,-58.96
0.184,-0.117,-0.039,-61.646,-85.632,-71.106
0.209,-0.072,0.025,-46.57,-69.397,-73.975
0.225,-0.01,0.065,-38.33,-54.077,-70.862
0.184,0.144,0.066,-44.922,-26.367,-53.833
0.16,0.181,0.011,-56.213,-20.264,-45.288
0.144,0.204,-0.028,-65.552,-35.4,-31.433
0.14,0.266,0.03,-60.059,-45.959,-26.367
0.137,0.331,0.102,-39.368,-40.894,-13.367
0.095,0.457,0.204,-28.137,-22.644,-5.066
0.066,0.499,0.218,-13.672,17.212,10.376
-0.024,0.573,0.209,-14.709,19.714,15.991
-0.079,0.61,0.214,-20.325,-28.198,13.062
-0.094,0.64,0.297,-15.869,-56.213,4.395
-0.053,0.623,0.363,-8.301,-69.458,-3.052
-0.022,0.615,0.433,-8.057,-50.659,7.874
-0.08,0.681,0.517,-20.874,-31.494,22.949
-0.149,0.723,0.511,-41.382,-1.343,38.269
-0.232,0.748,0.462,-38.269,7.874,34.546
-0.227,0.74,0.439,-21.057,18.311,26.733
-0.245,0.779,0.432,-16.724,13.977,29.175
-0.292,0.815,0.46,-15.381,1.404,31.616
-0.328,0.836,0.503,-8.484,-26.001,22.827
-0.316,0.806,0.599,-3.601,-30.396,15.381
-0.292,0.774,0.637,-3.662,-28.32,9.888
0.326,-0.112,0.591,-288.33,-93.445,78.125
0.288,-0.081,0.41,-283.142,-76.904,49.805
0.306,-0.111,0.294,-262.512,-53.833,33.813
0.275,-0.11,0.191,-213.989,-46.997,13.611
0.137,-0.022,0.022,-199.463,-60.547,3.662
0.117,-0.004,-0.033,-156.067,-92.773,-29.602
0.128,-0.048,-0.044,-131.348,-108.276,-46.753
0.137,-0.075,-0.028,-108.704,-135.254,-65.979
0.169,-0.092,-0.006,-107.544,-140.93,-67.993
0.193,-0.087,0.01,-107.727,-121.704,-60.181
0.214,-0.055,0.045,-103.882,-97.839,-53.406
0.198,-0.029,0.042,-93.506,-68.481,-47.913
0.141,0.063,0.01,-55.664,-15.503,-42.603
0.108,0.124,0.023,-37.17,-2.441,-41.199
0.082,0.183,0.059,-30.579,-16.479,-36.987
0.068,0.256,0.157,-45.471,-40.649,-32.715
0.086,0.268,0.198,-74.585,-80.017,-20.996
0.13,0.343,0.272,-75.378,-76.477,-15.137
0.135,0.395,0.288,-51.514,-21.179,-5.432
0.092,0.5,0.271,-33.936,15.625,0.61
0.039,0.552,0.245,-18.188,45.837,6.958
-0.027,0.6,0.209,1.404,53.04,11.475
-0.123,0.671,0.163,5.371,28.503,5.981
-0.121,0.686,0.196,-1.221,-26.733,-7.69
-0.075,0.708,0.344,-18.372,-35.583,-2.441
-0.091,0.747,0.37,-52.734,-5.371,20.691
-0.176,0.797,0.257,-47.119,21.24,20.325
-0.176,0.781,0.185,-27.161,43.884,11.841
-0.164,0.768,0.157,6.836,26.611,7.507
-0.189,0.782,0.259,8.057,-15.442,10.132
0.521,-0.454,2.002,-225.342,-9.766,62.683
0.569,-0.491,1.662,-242.859,-3.967,66.711
0.607,-0.505,1.342,-266.663,-7.996,76.904
0.645,-0.468,0.81,-272.217,-17.7,83.557
0.598,-0.391,0.585,-270.203,-36.377,92.896
0.401,-0.214,0.165,-260.01,-37.964,88.806
0.336,-0.158,-0.002,-215.393,-38.086,68.054
0.235,-0.064,-0.203,-188.416,-56.213,57.251
0.151,-0.019,-0.267,-150.879,-131.836,30.334
0.051,0.034,-0.273,-129.211,-173.035,11.169
0.048,0.045,-0.163,-100.098,-205.078,-9.888
0.074,0.04,-0.012,-50.598,-211.243,-50.11
0.19,-0.032,0.161,-42.908,-185.242,-62.439
0.222,-0.06,0.159,-44.006,-119.568,-61.89
0.161,-0.03,0.083,-39.917,-91.736,-55.969
0.101,0.011,0.071,-15.564,-54.565,-54.077
0.068,0.065,0.121,-3.662,-47.668,-58.96
0.094,0.084,0.166,0.671,-56.702,-62.012
0.141,0.147,0.287,-7.08,-63.843,-57.129
0.148,0.185,0.338,-19.531,-65.613,-48.828
0.14,0.22,0.353,-50.72,-49.072,-28.625
0.116,0.276,0.286,-60.242,-34.79,-20.691
0.12,0.309,0.261,-52.979,-8.179,-11.23
0.1,0.456,0.308,-42.48,6.165,-5.432
0.049,0.537,0.314,-25.513,46.997,8.301
-0.102,0.637,0.219,-21.24,59.143,12.085
-0.159,0.665,0.168,-19.287,51.575,11.658
-0.179,0.687,0.166,-11.658,-8.423,-2.319
-0.113,0.678,0.297,-3.418,-29.968,-11.536
-0.073,0.671,0.365,-4.333,-18.066,-5.676
0.133,-0.432,2.536,-194.946,-63.843,46.631
0.199,-0.515,2.303,-220.764,-50.842,38.818
0.408,-0.653,1.828,-250,-12.268,29.297
0.517,-0.703,1.581,-262.512,2.319,32.104
0.583,-0.717,1.319,-299.011,0.427,54.626
0.575,-0.605,0.851,-313.477,-14.648,65.125
0.526,-0.523,0.658,-313.721,-31.494,67.627
0.425,-0.394,0.271,-295.41,-18.433,59.57
0.395,-0.352,0.114,-222.778,7.446,42.969
0.256,-0.224,-0.121,-201.05,-6.714,41.077
0.183,-0.128,-0.279,-207.153,-46.814,39.795
0.134,-0.054,-0.375,-225.098,-188.11,17.212
0.125,-0.033,-0.233,-202.942,-244.324,-4.944
0.16,-0.06,-0.098,-118.774,-243.591,-42.664
0.201,-0.08,0.038,-80.811,-200.439,-50.659
0.178,-0.054,0.045,-40.222,-109.253,-53.162
0.114,0.016,0.073,-35.095,-76.721,-51.636
0.097,0.053,0.07,-39.001,-37.292,-47.424
0.086,0.108,0.027,-35.583,-29.358,-46.57
0.095,0.128,0.035,-25.757,-26.672,-44.861
0.093,0.164,0.078,-12.39,-23.254,-32.288
0.041,0.283,0.158,-20.325,-21.362,-25.757
0.031,0.333,0.149,-49.072,-32.104,-23.193
0.092,0.371,0.114,-54.016,-38.025,-23.315
0.128,0.39,0.126,-34.546,-17.883,-14.648
0.094,0.498,0.168,-18.188,2.991,-4.883
0.021,0.578,0.175,21.851,35.828,-0.183
-0.076,0.65,0.165,48.157,52.49,-13.733
-0.04,0.637,0.177,67.749,69.397,-25.269
-0.007,0.626,0.219,26.367,71.289,3.845
0.044,0.015,1.616,-13.794,-0.061,24.048
-0.051,0.112,1.764,-19.287,-1.953,31.006
-0.122,0.177,1.855,-24.292,-4.944,36.804
-0.187,0.239,1.942,-25.452,0,33.936
-0.228,0.279,2.125,-19.043,8.362,23.621
-0.193,0.229,2.214,-1.465,22.888,-0.427
-0.07,0.049,2.355,12.451,29.907,-5.005
-0.029,-0.036,2.419,32.288,36.804,7.019
0.014,-0.174,2.538,19.897,23.865,16.174
0.043,-0.237,2.606,-45.044,-29.419,23.132
0.133,-0.354,2.658,-83.374,-51.575,23.071
0.161,-0.399,2.627,-119.873,-66.04,24.414
0.167,-0.426,2.568,-181.702,-74.768,28.503
0.19,-0.472,2.325,-209.045,-70.984,26.978
0.255,-0.509,2.129,-258.362,-58.472,19.165
0.452,-0.555,1.688,-278.442,-53.345,19.775
0.494,-0.51,1.49,-306.763,-47.485,28.564
0.408,-0.356,1.117,-315.308,-43.274,30.212
0.358,-0.326,0.913,-316.406,-32.837,27.222
0.348,-0.341,0.694,-286.133,3.723,10.559
0.375,-0.372,0.258,-266.113,11.108,5.066
0.338,-0.323,0.06,-246.216,-30.029,-1.343
0.238,-0.223,-0.165,-228.088,-65.247,-13.367
0.229,-0.244,-0.174,-158.203,-101.807,-50.354
0.34,-0.361,-0.107,-124.207,-98.694,-60.242
0.393,-0.382,-0.081,-76.477,-70.374,-60.73
0.387,-0.317,-0.055,-55.298,-47.424,-57.922
0.337,-0.246,-0.064,-37.781,-22.705,-54.016
0.238,-0.125,-0.195,-37.781,-6.042,-43.274
0.216,-0.074,-0.238,-50.781,-29.663,-38.208
0.429,-0.522,0.562,-377.38,-64.331,-1.038
0.436,-0.488,0.261,-358.704,-61.584,-0.732
0.401,-0.43,0.16,-309.57,-93.75,-0.671
0.278,-0.305,0.033,-288.208,-117.371,-7.874
0.245,-0.269,-0.024,-240.54,-136.047,-34.851
0.226,-0.239,-0.097,-213.928,-134.766,-45.166
0.217,-0.221,-0.096,-156.799,-121.094,-53.955
0.206,-0.158,-0.073,-131.409,-106.873,-57.19
0.208,-0.122,-0.07,-88.196,-65.857,-62.683
0.189,-0.005,-0.072,-64.758,-40.283,-63.171
0.171,0.07,-0.072,-13.062,19.165,-61.768
0.147,0.148,-0.123,-0.488,39.246,-55.603
0.094,0.227,-0.162,-38.269,2.197,-22.766
0.087,0.29,-0.139,-64.026,-41.809,-7.874
0.101,0.348,-0.087,-52.246,-77.454,-2.991
0.165,0.404,0.043,-24.109,-51.575,-8.911
0.193,0.408,0.046,1.648,28.748,1.282
0.104,0.537,-0.051,-1.099,45.837,18.433
0.002,0.629,-0.07,31.25,36.56,14.16
-0.048,0.646,-0.04,58.105,37.476,-1.648
-0.024,0.64,0.024,26.733,6.897,38.696
-0.145,0.766,0.189,-15.076,-28.259,66.345
-0.199,0.836,0.235,-29.724,-53.406,52.856
-0.185,0.839,0.271,-9.277,-26.489,31.616
-0.179,0.823,0.266,1.892,47.668,30.579
-0.301,0.913,0.23,-3.296,64.88,40.283
-0.367,0.958,0.205,14.221,58.899,32.227
-0.38,0.964,0.192,27.527,41.626,22.583
-0.366,0.953,0.242,31.311,13.672,18.311
-0.352,0.945,0.415,12.451,-49.988,19.775
0.423,-0.554,2.272,-134.155,5.432,-26.733
0.668,-0.67,1.756,-170.105,16.113,-17.212
0.741,-0.676,1.524,-192.078,5.493,-6.653
0.803,-0.634,1.141,-227.417,-27.466,7.996
0.79,-0.613,1.008,-235.474,-39.063,10.01
0.738,-0.572,0.786,-231.628,-24.78,8.911
0.702,-0.533,0.588,-228.088,15.076,8.362
0.59,-0.488,0.089,-234.314,-7.874,6.409
0.471,-0.43,-0.023,-247.925,-70.984,5.798
0.247,-0.229,0.079,-274.902,-203.247,-3.845
0.199,-0.176,0.122,-265.93,-219.91,-20.813
0.147,-0.162,-0.003,-216.492,-162.109,-54.504
0.117,-0.175,-0.101,-165.1,-104.187,-71.533
0.073,-0.156,-0.178,-140.564,-93.506,-74.951
0.065,-0.121,-0.159,-99.792,-73.303,-75.5
0.092,-0.023,-0.1,-81.116,-53.833,-74.646
0.115,0.039,-0.061,-48.523,-6.653,-68.665
0.154,0.107,-0.009,-44.8,13.611,-60.974
0.167,0.111,-0.016,-69.641,23.499,-33.203
0.134,0.183,-0.022,-82.642,16.602,-19.836
0.126,0.241,-0.009,-61.89,33.936,-12.695
0.243,0.302,-0.048,-28.687,72.571,-14.709
0.316,0.337,-0.093,60.12,151.794,1.709
0.115,0.463,-0.062,98.083,157.41,7.446
0.075,0.494,-0.073,110.229,140.686,-0.549
0.009,0.654,0.133,6.592,-6.409,34.302
-0.13,0.715,0.275,-66.467,-90.82,59.326
-0.093,0.68,0.266,-44.25,-33.447,21.606
0.098,0.662,0.192,15.869,28.931,24.78
-0.082,0.752,0.31,39.856,-7.568,67.749
0.192,-0.338,1.471,-252.38,-7.324,15.015
0.231,-0.296,1.268,-244.995,-7.324,25.513
0.297,-0.223,0.975,-234.253,-17.7,26.245
0.315,-0.186,0.847,-226.318,-56.213,26.794
0.294,-0.085,0.612,-225.342,-76.904,25.879
0.276,-0.042,0.539,-206.97,-95.215,15.198
0.251,-0.017,0.445,-191.406,-91.736,5.249
0.232,-0.027,0.38,-165.71,-86.853,-15.259
0.189,-0.036,0.24,-156.616,-93.079,-22.461
0.163,-0.013,0.201,-129.211,-110.474,-38.757
0.132,0.003,0.213,-108.826,-113.403,-51.27
0.138,-0.012,0.226,-74.585,-103.149,-71.472
0.158,-0.059,0.225,-65.247,-93.323,-74.768
0.16,-0.067,0.223,-56.091,-73.669,-70.251
0.153,-0.009,0.245,-55.237,-64.941,-66.467
0.155,0.029,0.248,-56.396,-50.415,-58.228
0.131,0.105,0.252,-54.26,-43.457,-53.833
0.112,0.146,0.274,-45.288,-28.931,-45.654
0.074,0.229,0.33,-46.875,-23.315,-41.443
0.066,0.257,0.337,-67.627,-24.719,-30.823
0.066,0.323,0.356,-77.148,-27.954,-25.146
0.072,0.358,0.376,-77.087,-14.465,-15.93
0.068,0.425,0.346,-70.557,3.479,-10.376
0.052,0.461,0.3,-50.415,43.518,1.16
-0.001,0.554,0.24,-38.452,57.251,4.395
-0.036,0.606,0.238,-21.79,57.739,7.446
-0.107,0.681,0.26,-20.996,43.457,7.812
-0.126,0.7,0.267,-24.536,22.339,7.202
-0.115,0.721,0.293,-29.297,-18.616,2.625
-0.098,0.724,0.311,-25.085,-26.428,0.122
-0.218,-0.526,2.54,-161.499,-48.767,-10.925
-0.1,-0.607,2.218,-209.839,-61.707,-17.761
0.192,-0.769,1.811,-282.959,-71.655,-30.518
0.35,-0.805,1.634,-294.922,-60.303,-25.085
0.529,-0.742,1.3,-293.945,-50.537,-18.677
0.527,-0.678,1.125,-298.096,-35.583,-11.719
0.507,-0.634,0.85,-296.387,-32.043,-13.611
0.542,-0.639,0.764,-284.851,-25.574,-10.62
0.531,-0.521,0.504,-281.311,-17.395,-3.479
0.458,-0.425,0.303,-245.117,-10.254,-5.127
0.242,-0.273,0.045,-208.313,-27.405,-18.982
0.159,-0.257,0.044,-151.489,-79.468,-61.035
0.169,-0.292,0.071,-144.836,-98.083,-77.698
0.197,-0.299,0.049,-147.705,-116.516,-87.83
0.234,-0.264,-0.026,-141.968,-112.305,-83.984
0.234,-0.241,-0.054,-110.168,-75.806,-71.655
0.204,-0.175,-0.078,-86.548,-49.561,-67.017
0.192,-0.115,-0.074,-28.748,4.028,-62.195
0.207,-0.001,-0.06,-5.371,22.766,-59.387
0.208,0.043,-0.029,-6.592,12.695,-43.64
0.156,0.161,0.14,-31.799,-12.695,-34.729
0.169,0.199,0.185,-65.735,-32.593,-27.527
0.33,0.189,0.11,-55.176,-5.005,-24.719
0.41,0.205,0.048,2.991,84.778,7.568
0.17,0.417,0.051,37.842,112.671,26.55
0.06,0.488,-0.011,95.154,155.945,12.39
0.032,0.702,0.05,74.463,114.014,35.828
-0.192,0.829,0.265,8.179,18.005,72.571
-0.305,0.822,0.345,-63.66,-65.857,31.921
0.032,0.609,0.142,-37.354,-20.813,4.578
0.158,-0.164,0.106,-219.727,-76.111,-20.508
0.129,-0.164,0.02,-179.138,-68.237,-50.842
0.107,-0.212,-0.131,-160.583,-68.726,-63.11
0.139,-0.226,-0.166,-129.089,-76.477,-86.06
0.181,-0.23,-0.181,-95.886,-57.617,-91.98
0.242,-0.197,-0.206,-78.186,-36.377,-85.022
0.25,-0.16,-0.212,-62.134,-12.634,-75.195
0.206,-0.029,-0.182,-44.25,15.076,-55.237
0.155,0.043,-0.124,-40.161,12.756,-48.218
0.097,0.106,0.058,-36.072,-10.62,-40.283
0.107,0.112,0.147,-41.87,-26.123,-34.546
0.131,0.152,0.306,-64.697,-52.917,-18.005
0.13,0.204,0.372,-70.801,-56.641,-8.362
0.067,0.341,0.466,-62.988,-32.41,12.146
0.027,0.386,0.48,-51.758,-6.165,21.79
-0.064,0.488,0.485,-29.602,41.138,38.025
-0.118,0.552,0.495,-21.545,48.584,41.687
-0.167,0.615,0.509,-11.047,37.292,36.133
-0.2,0.689,0.503,-5.066,33.02,28.381
-0.179,0.686,0.491,6.47,32.41,15.32
-0.13,0.663,0.491,4.7,26.917,14.648
-0.127,0.668,0.506,-15.076,0.183,18.127
-0.142,0.692,0.555,-21.362,-12.146,17.029
-0.149,0.7,0.582,-13.184,-15.137,7.874
-0.141,0.687,0.606,-3.967,-7.385,3.174
-0.13,0.67,0.605,5.005,-3.601,0.244
-0.127,0.655,0.656,2.808,-14.832,-0.244
-0.126,0.649,0.701,-3.418,-40.405,-5.615
-0.115,0.628,0.758,-4.944,-44.189,-7.812
-0.105,0.617,0.772,-3.784,-34.424,-6.226
-0.055,-0.041,2.943,71.411,56.641,3.601
-0.063,-0.17,2.995,58.228,19.958,31.616
-0.158,-0.369,3.068,41.931,-16.968,48.523
-0.215,-0.437,3.115,-20.569,-85.388,44.189
-0.098,-0.708,3.068,-67.444,-103.21,23.56
0.051,-0.872,2.873,-176.575,-102.539,-2.197
0.291,-0.987,2.213,-228.333,-94.849,0.122
0.363,-0.946,1.879,-300.903,-79.895,7.141
0.53,-0.834,1.303,-315.186,-69.763,7.263
0.603,-0.762,1.044,-324.341,-44.128,16.357
0.58,-0.54,0.502,-325.134,-28.381,25.574
0.502,-0.452,0.229,-283.569,9.399,26.733
0.41,-0.366,-0.198,-237.915,22.217,17.212
0.359,-0.307,-0.262,-145.752,-11.963,-8.179
0.2,-0.175,-0.123,-114.868,-54.626,-27.161
0.163,-0.144,0.002,-74.829,-117.92,-72.266
0.13,-0.19,0.16,-61.646,-120.911,-92.651
0.13,-0.248,0.166,-52.368,-101.868,-114.99
0.137,-0.298,0.156,-56.763,-94.666,-117.676
0.137,-0.306,0.163,-76.843,-80.566,-116.577
0.168,-0.295,0.13,-87.402,-70.313,-111.938
0.181,-0.266,0.091,-92.529,-59.082,-105.286
0.219,-0.167,0.047,-72.876,-31.311,-91.431
0.235,-0.108,0.074,-55.115,-16.541,-84.412
0.259,-0.02,0.173,-42.419,4.089,-65.857
0.263,0.022,0.199,-51.88,8.362,-52.979
0.234,0.157,0.212,-74.097,14.282,-22.156
0.213,0.239,0.213,-76.05,22.644,-7.874
0.19,0.316,0.218,-60.12,51.331,15.503
0.135,0.427,0.236,-46.265,68.359,25.574
0.51,-0.637,0.767,-293.335,-40.344,43.64
0.492,-0.561,0.595,-294.983,-46.875,41.87
0.429,-0.456,0.311,-300.842,-72.815,37.476
0.4,-0.445,0.23,-272.522,-95.215,21.912
0.343,-0.384,0.132,-251.831,-94.055,9.094
0.308,-0.337,0.084,-181.396,-80.261,-32.227
0.269,-0.324,0.059,-135.681,-81.848,-52.612
0.238,-0.316,0.095,-84.229,-92.59,-74.158
0.184,-0.278,0.13,-87.341,-93.75,-80.261
0.163,-0.263,0.113,-110.596,-99.365,-86.365
0.148,-0.233,0.055,-115.417,-101.746,-85.693
0.153,-0.213,0.04,-102.356,-89.722,-79.895
0.156,-0.093,0.066,-85.632,-69.946,-76.05
0.142,0,0.088,-40.1,-4.761,-69.397
0.095,0.135,0.109,-18.25,29.541,-65.247
0.078,0.155,0.117,-5.127,53.223,-59.509
0.074,0.206,0.141,-28.992,39.856,-42.236
0.073,0.264,0.162,-57.373,8.728,-33.63
0.072,0.33,0.187,-81.543,-26.184,-22.4
0.088,0.413,0.218,-68.848,-10.315,-18.921
0.105,0.423,0.21,-28.992,49.194,-7.935
0.086,0.49,0.234,-14.954,60.913,0.305
0.036,0.55,0.3,2.502,42.725,0.183
-0.029,0.63,0.395,12.451,44.617,-13.794
0.002,0.639,0.387,20.935,57.19,-16.602
-0.078,0.713,0.513,-6.775,30.64,9.705
-0.172,0.74,0.575,-62.195,-23.193,25.024
-0.098,0.659,0.514,-51.392,-10.498,4.333
0.029,0.609,0.452,-11.841,58.655,-9.094
0.026,0.672,0.437,-6.958,70.984,6.897
-0.122,-0.528,2.932,-223.328,-50.964,-11.23
0.051,-0.785,2.317,-264.038,-62.073,-16.846
0.19,-0.822,2.114,-279.48,-36.804,-5.249
0.386,-0.744,1.666,-281.86,-13.489,6.104
0.427,-0.68,1.399,-283.875,9.399,24.353
0.512,-0.561,0.912,-283.752,0.061,28.076
0.575,-0.419,0.535,-295.044,-57.983,36.133
0.55,-0.313,0.407,-303.223,-98.206,41.809
0.496,-0.211,0.336,-289.917,-143.799,36.316
0.441,-0.117,0.257,-267.456,-133.24,23.987
0.415,-0.102,0.193,-218.079,-91.614,-0.549
0.299,-0.065,0.027,-194.824,-78.369,-9.827
0.209,-0.052,-0.059,-132.568,-74.219,-32.776
0.183,-0.056,-0.02,-97.473,-82.52,-45.959
0.2,-0.118,0.166,-53.162,-96.191,-68.176
0.254,-0.167,0.254,-49.377,-89.478,-74.219
0.3,-0.172,0.31,-79.651,-59.509,-62.683
0.253,-0.115,0.275,-99.67,-42.908,-49.438
0.101,0.027,0.17,-100.952,1.038,-30.579
0.042,0.082,0.131,-85.693,24.292,-26.001
-0.002,0.162,0.115,-66.711,38.94,-20.447
0.002,0.206,0.15,-72.998,24.658,-18.494
0.032,0.305,0.223,-105.103,-14.343,-15.381
0.044,0.332,0.232,-117.981,-20.874,-14.038
0.062,0.375,0.182,-114.685,7.141,-7.507
0.042,0.434,0.143,-100.464,35.278,0.793
-0.058,0.572,0.084,-66.406,88.867,18.921
-0.117,0.636,0.06,-51.941,98.267,23.926
-0.169,0.694,0.033,-34.302,60.852,20.935
-0.205,0.751,0.031,-27.222,24.841,12.39
0.291,-0.41,1.032,-277.344,-9.46,23.315
0.295,-0.29,0.633,-285.706,-15.625,23.621
0.283,-0.216,0.438,-320.679,-89.05,26.733
0.261,-0.111,0.215,-322.51,-137.085,18.555
0.271,-0.105,0.23,-271.79,-212.463,-17.517
0.234,-0.09,0.395,-244.385,-224.243,-35.522
0.22,-0.098,0.418,-190.43,-170.41,-70.862
0.192,-0.13,0.328,-154.053,-118.774,-85.999
0.156,-0.138,0.265,-93.14,-21.851,-104.553
0.106,-0.167,0.127,-78.552,5.676,-109.375
0.099,-0.171,0.048,-88.318,-4.456,-106.506
0.093,-0.108,-0.042,-106.506,-36.011,-99.365
0.104,-0.061,-0.021,-125,-80.505,-86.67
0.159,0.004,0.059,-114.807,-70.984,-83.008
0.172,0.035,0.072,-75.378,-7.568,-74.28
0.138,0.144,0.038,-60.913,23.437,-68.298
0.114,0.208,0.019,-52.49,52.124,-53.528
0.093,0.304,0.016,-54.626,49.194,-46.265
0.103,0.339,0.046,-58.228,22.705,-36.987
0.163,0.401,0.164,-56.152,15.076,-34.119
0.189,0.434,0.187,-44.434,43.335,-18.311
0.096,0.58,0.117,-30.762,66.04,-4.395
-0.012,0.654,0.061,20.935,80.75,-4.822
-0.08,0.677,0.021,41.321,65.979,-17.273
-0.05,0.676,0.1,0.366,-8.606,0.427
-0.076,0.774,0.316,-37.903,-36.987,20.264
-0.101,0.806,0.333,-30.212,11.719,13.733
-0.071,0.804,0.206,1.282,64.27,6.042
-0.127,0.828,0.207,26.001,84.473,12.024
-0.193,0.833,0.332,35.583,22.766,16.113
0.707,-0.881,1.841,-260.193,-10.681,-38.757
0.885,-0.866,1.262,-325.623,-38.513,-7.874
0.938,-0.822,1.029,-326.782,-37.781,4.028
0.839,-0.71,0.576,-320.007,-27.527,21.667
0.741,-0.653,0.366,-309.814,-0.427,24.658
0.607,-0.549,0.071,-283.02,15.137,16.785
0.564,-0.505,-0.007,-249.084,23.682,5.737
0.414,-0.42,-0.17,-206.238,-10.376,-11.658
0.318,-0.365,-0.225,-204.529,-125.61,-19.409
0.221,-0.312,-0.099,-194.153,-179.565,-28.137
0.248,-0.327,0.03,-150.879,-184.998,-54.565
0.309,-0.31,0.147,-132.446,-141.418,-64.392
0.301,-0.263,0.115,-110.596,-45.715,-64.941
0.189,-0.114,0.02,-106.934,-20.508,-55.481
0.131,-0.064,-0.005,-101.318,-13.306,-35.889
0.073,0.059,0.011,-92.285,-15.93,-32.593
0.08,0.133,0.04,-62.5,-13.977,-38.757
0.109,0.259,0.138,-50.11,-10.315,-39.429
0.112,0.299,0.209,-57.312,-1.038,-25.696
0.087,0.377,0.308,-72.998,6.165,-16.174
0.071,0.411,0.303,-82.947,19.348,-10.498
0.099,0.449,0.239,-67.139,65.369,-12.634
0.129,0.482,0.198,-54.626,89.661,-11.963
0.077,0.592,0.132,-35.706,96.069,2.991
-0.005,0.63,0.137,-17.212,79.773,2.808
-0.03,0.628,0.138,53.467,87.341,-34.912
0.137,0.598,0.191,68.909,96.252,-32.837
0.094,0.642,0.278,-4.395,47.668,34.424
-0.048,0.71,0.264,-32.166,28.381,38.513
0.005,0.695,0.18,-17.09,48.218,16.602
0.159,-0.401,2.151,-183.899,-83.74,48.95
0.163,-0.39,1.856,-240.173,-70.862,35.034
0.23,-0.414,1.419,-259.644,-63.782,30.64
0.254,-0.392,1.21,-269.104,-70.801,36.377
0.25,-0.276,0.953,-266.052,-82.031,41.931
0.214,-0.199,0.873,-263.245,-92.773,37.537
0.122,-0.108,0.69,-253.174,-84.473,19.653
0.124,-0.133,0.622,-206.909,-46.753,-24.475
0.195,-0.205,0.551,-183.96,-24.841,-35.767
0.186,-0.194,0.487,-157.959,-4.883,-41.321
0.103,-0.186,0.295,-160.828,-30.212,-44.983
0.094,-0.219,0.249,-177.551,-138.611,-60.913
0.168,-0.267,0.35,-173.645,-179.626,-68.787
0.214,-0.252,0.423,-140.259,-162.109,-75.684
0.249,-0.211,0.43,-120.3,-111.877,-76.782
0.219,-0.179,0.373,-93.445,-9.094,-71.228
0.114,-0.082,0.246,-88.013,20.508,-65.857
0.075,-0.027,0.188,-85.266,34.424,-55.176
0.046,0.083,0.089,-87.769,23.071,-48.828
0.04,0.137,0.081,-92.102,-14.587,-37.292
0.036,0.234,0.152,-89.783,-23.254,-32.166
0.037,0.271,0.188,-80.017,1.343,-23.987
0.056,0.314,0.179,-74.768,25.513,-20.996
0.068,0.344,0.134,-60.364,67.993,-12.268
0.042,0.437,0.055,-48.706,81.238,-6.409
0.002,0.496,0.024,-23.437,90.332,4.028
-0.097,0.625,-0.029,-14.343,82.52,6.775
-0.132,0.677,-0.02,3.418,40.405,-0.122
-0.111,0.687,0.054,15.259,22.339,-10.803
-0.06,0.667,0.098,20.996,12.634,-16.235
-0.011,0.466,2.607,-47.729,11.414,44.373
-0.045,0.564,2.778,-76.721,21.301,39.673
-0.025,0.539,2.742,-136.047,12.207,35.828
0.07,0.418,2.741,-144.836,4.883,40.1
0.098,0.365,2.75,-131.653,4.7,50.354
0.138,0.214,2.61,-128.418,5.31,50.842
0.178,0.109,2.459,-143.616,-12.024,50.354
0.27,-0.08,2.109,-158.752,-29.48,53.162
0.288,-0.139,1.909,-180.664,-47.607,57.983
0.309,-0.189,1.416,-225.159,-66.04,67.2
0.313,-0.179,1.15,-235.962,-65.063,70.496
0.3,-0.14,0.911,-232.178,-63.049,75.073
0.197,-0.007,0.565,-222.107,-66.04,75.378
0.114,0.064,0.43,-201.233,-84.229,61.462
0.039,0.123,0.219,-195.801,-102.783,47.424
0.056,0.127,0.157,-185.364,-162.292,20.752
0.039,0.113,0.172,-171.143,-198.181,7.69
-0.01,0.106,0.253,-124.268,-230.957,-27.344
-0.048,0.082,0.448,-91.37,-210.205,-52.124
-0.018,0.041,0.51,-30.457,-117.493,-100.159
0.04,-0.056,0.434,-25.33,-73.608,-110.474
0.031,-0.097,0.311,-72.51,-65.125,-102.905
0.016,-0.15,0.193,-100.159,-98.694,-93.567
0.027,-0.132,0.214,-114.197,-139.587,-80.994
0.093,-0.048,0.256,-95.642,-119.263,-79.468
0.115,0.006,0.257,-39.978,-26.794,-80.811
0.086,0.081,0.217,-21.545,15.442,-80.994
0.063,0.101,0.161,-24.658,40.527,-73.181
0.058,0.166,0.035,-40.771,15.137,-64.331
0.071,0.227,0.057,-62.317,-58.777,-46.082
0.162,-0.044,2.697,57.312,65.247,-52.856
0.16,-0.16,2.737,63.538,65.796,-22.217
0.032,-0.279,2.768,49.011,41.382,4.211
-0.078,-0.27,2.842,-42.786,-55.115,42.175
-0.307,-0.244,2.898,-101.868,-91.431,42.419
-0.365,-0.267,2.761,-195.435,-95.032,16.174
-0.271,-0.41,2.297,-228.394,-78.491,1.221
-0.167,-0.474,2.086,-295.898,-43.701,-9.216
0.053,-0.48,1.726,-322.693,-24.902,-6.775
0.163,-0.468,1.523,-349.426,16.113,6.897
0.336,-0.42,1.025,-361.511,19.836,20.813
0.388,-0.364,0.799,-413.025,-62.378,52.002
0.415,-0.21,0.637,-437.561,-123.596,60.547
0.398,-0.137,0.654,-429.321,-162.903,50.72
0.368,-0.067,0.591,-401.062,-133.667,35.645
0.394,-0.081,0.503,-336.487,-56.152,11.841
0.42,-0.084,0.291,-311.768,-38.757,13.794
0.358,-0.04,0.208,-298.401,-87.463,31.128
0.211,0.074,0.169,-295.471,-126.831,30.09
0.166,0.109,0.164,-256.836,-143.005,6.042
0.131,0.086,0.089,-222.717,-121.765,-10.681
0.142,0.054,0.031,-148.01,-71.228,-35.339
0.158,0.028,-0.054,-116.882,-54.81,-39.612
0.143,0.045,-0.071,-69.763,-37.72,-41.87
0.116,0.087,-0.095,-51.514,-31.128,-43.213
0.116,0.105,-0.108,-20.142,-23.071,-42.236
0.101,0.181,-0.087,-8.179,-25.085,-37.048
0.076,0.234,-0.044,2.014,-31.86,-23.56
0.029,0.326,0.052,3.418,-28.687,-19.775
0.014,0.349,0.069,5.798,-10.132,-16.235
-0.12,0.602,2.124,-50.903,-21.118,79.224
-0.205,0.697,2.261,-48.462,-8.362,74.89
-0.194,0.692,2.339,-31.25,2.014,57.617
-0.146,0.586,2.58,-27.771,-0.061,50.232
-0.119,0.497,2.676,-41.687,-10.01,45.288
-0.077,0.403,2.696,-126.526,-55.603,39.917
-0.003,0.267,2.465,-164.185,-72.937,39.246
0.017,0.21,2.27,-189.941,-74.951,37.048
0.049,0.108,1.862,-193.726,-71.289,36.499
0.072,0.075,1.687,-207.214,-64.697,37.537
0.124,0.043,1.378,-217.834,-56.58,39.612
0.141,0.04,1.228,-228.943,-36.072,45.166
0.183,0.065,0.938,-222.595,-26.245,46.448
0.188,0.118,0.804,-196.899,-8.972,51.88
0.127,0.285,0.554,-183.594,-7.996,54.077
0.095,0.339,0.489,-156.372,-48.584,43.03
0.094,0.347,0.534,-147.034,-88.074,29.114
0.071,0.323,0.553,-159.851,-159.79,-6.104
0.025,0.26,0.438,-169.128,-180.664,-23.987
0.016,0.219,0.38,-143.982,-185.608,-62.5
0.034,0.074,0.318,-117.249,-167.786,-81.238
0.041,0.021,0.277,-78.247,-118.042,-103.394
0.016,-0.043,0.17,-68.909,-96.558,-109.436
0.021,-0.086,0.108,-57.373,-66.406,-118.958
0.099,-0.152,-0.021,-51.514,-63.477,-119.69
0.125,-0.132,-0.05,-34.912,-74.097,-111.755
0.145,-0.04,-0.02,-24.719,-75.439,-107.239
0.167,-0.009,0.006,-11.841,-60.12,-97.839
0.217,0.058,0.05,-10.071,-47.852,-89.661
0.217,0.12,0.082,-6.104,-10.132,-67.505
0.333,-0.528,1.521,-240.967,-13.977,23.804
0.364,-0.521,1.299,-286.56,-26.489,36.926
0.423,-0.478,0.917,-301.208,-35.278,41.748
0.42,-0.421,0.757,-312.927,-44.8,44.128
0.385,-0.34,0.445,-309.814,-36.804,37.231
0.406,-0.337,0.283,-279.053,-4.211,25.269
0.373,-0.25,0.031,-253.418,-6.47,25.635
0.269,-0.171,-0.078,-226.501,-75.989,20.508
0.123,-0.034,-0.197,-220.886,-128.906,8.972
0.111,-0.012,-0.15,-174.805,-193.542,-32.227
0.168,-0.052,-0.009,-143.433,-188.293,-51.941
0.196,-0.062,0.007,-97.351,-133.545,-65.308
0.176,-0.012,-0.039,-80.566,-100.586,-61.768
0.143,0.022,-0.064,-50.964,-42.908,-53.162
0.093,0.079,-0.072,-37.659,-24.963,-51.392
0.075,0.123,-0.047,-17.09,-14.221,-47.852
0.032,0.239,0.006,-12.756,-14.282,-45.288
0.024,0.277,0.012,-21.179,-26.306,-37.72
0.015,0.3,0.085,-31.25,-39.368,-31.982
0.023,0.312,0.16,-48.889,-55.176,-21.667
0.067,0.379,0.279,-52.307,-48.645,-17.395
0.078,0.436,0.291,-45.288,-6.287,-6.897
0.031,0.554,0.249,-37.842,21.667,-0.488
-0.019,0.596,0.209,-24.78,53.04,9.033
-0.108,0.672,0.149,-22.4,41.687,10.071
-0.125,0.702,0.158,-23.56,-14.526,3.052
-0.097,0.732,0.228,-19.775,-31.982,-3.357
-0.08,0.737,0.273,-6.897,-28.015,-5.005
-0.102,0.783,0.375,-9.399,-21.973,2.502
-0.133,0.809,0.429,-31.982,-26.917,13.855
-0.003,-0.141,3.274,90.881,98.022,5.92
-0.107,-0.294,3.181,-20.508,16.724,34.363
-0.188,-0.333,3.139,-103.821,-48.157,50.049
-0.21,-0.485,2.912,-141.541,-40.039,36.194
-0.134,-0.624,2.635,-249.084,14.282,8.728
0.058,-0.79,1.898,-304.382,37.476,11.719
0.14,-0.791,1.557,-346.863,52.673,22.339
0.347,-0.734,0.995,-369.385,64.27,40.955
0.459,-0.689,0.765,-355.469,58.655,46.387
0.547,-0.633,0.566,-325.623,14.343,62.256
0.55,-0.459,0.313,-320.068,-17.639,68.298
0.514,-0.384,0.235,-306.763,-48.096,55.481
0.586,-0.344,0.051,-290.1,-43.701,46.021
0.584,-0.301,-0.034,-238.403,-61.584,49.744
0.357,-0.112,-0.065,-215.82,-82.886,52.673
0.252,-0.032,-0.042,-171.875,-96.313,28.992
0.189,0.008,-0.002,-142.456,-88.379,6.836
0.201,0.002,0.013,-103.333,-74.158,-23.987
0.237,-0.012,-0.019,-101.013,-74.768,-28.076
0.239,-0.019,-0.064,-108.459,-88.318,-21.179
0.154,0.018,-0.075,-106.262,-96.863,-16.357
0.104,0.053,-0.021,-83.13,-101.929,-18.799
0.076,0.132,0.095,-68.665,-97.168,-23.376
0.078,0.173,0.145,-45.349,-78.247,-26.489
0.061,0.241,0.233,-38.391,-65.674,-23.621
0.038,0.273,0.275,-40.1,-39.368,-13.489
0.006,0.337,0.296,-49.194,-29.297,-8.362
-0.001,0.374,0.281,-77.087,-27.039,4.028
-0.019,0.459,0.248,-90.942,-32.715,10.193
-0.013,0.487,0.224,-98.45,-36.743,19.714
